"subject","trial","native_language","word","class","frequency","length","correct","RT"
"A1",23,"English","owl","animal",4.859812,3,"correct",566.999827786391
"A1",27,"English","mole","animal",4.60517,4,"correct",548.999757611321
"A1",29,"English","cherry","plant",4.997212,6,"correct",572.000004930756
"A1",30,"English","pear","plant",4.727388,4,"correct",486.000182784394
"A1",32,"English","dog","animal",7.667626,3,"correct",414.00001083632
"A1",33,"English","blackberry","plant",4.060443,10,"correct",483.000167285837
"A1",34,"English","strawberry","plant",4.75359,10,"correct",417.999819204691
"A1",38,"English","squirrel","animal",4.70953,8,"correct",524.999862139415
"A1",41,"English","radish","plant",3.044522,6,"correct",638.999709652821
"A1",42,"English","almond","plant",4.204693,6,"correct",485.000052895323
"A1",45,"English","whale","animal",5.298317,5,"correct",462.999974958074
"A1",46,"English","reindeer","animal",4.043051,8,"correct",513.999863556063
"A1",47,"English","blueberry","plant",2.484907,9,"correct",404.999972821852
"A1",48,"English","lemon","plant",5.631212,5,"correct",417.999819204691
"A1",53,"English","bee","animal",5.700444,3,"correct",556.999866360519
"A1",54,"English","goat","animal",6.228511,4,"correct",398.999833660979
"A1",55,"English","eggplant","plant",1.791759,8,"correct",536.999949248742
"A1",58,"English","tomato","plant",5.545177,6,"correct",590.999989712996
"A1",59,"English","peanut","plant",4.59512,6,"correct",387.000118797493
"A1",61,"English","bat","animal",5.918894,3,"incorrect",456.999821361383
"A1",62,"English","mustard","plant",4.442651,7,"correct",847.000258629749
"A1",64,"English","magpie","animal",2.995732,6,"correct",916.999566940924
"A1",65,"English","stork","animal",3.044522,5,"correct",606.000008441996
"A1",67,"English","goose","animal",5.267858,5,"correct",614.999835299014
"A1",68,"English","squid","animal",3.970292,5,"correct",555.9998363967
"A1",75,"English","carrot","plant",4.976734,6,"correct",496.999987029976
"A1",76,"English","crocodile","animal",4.615121,9,"correct",499.999950788907
"A1",79,"English","tortoise","animal",4.624973,8,"correct",1229.99944850937
"A1",80,"English","spider","animal",4.844187,6,"correct",442.000052121661
"A1",82,"English","grape","plant",5.192957,5,"correct",496.999987029976
"A1",88,"English","fox","animal",5.652489,3,"correct",581.999739420361
"A1",91,"English","potato","plant",6.461468,6,"correct",721.999899719386
"A1",93,"English","frog","animal",5.129899,4,"correct",675.000208661075
"A1",94,"English","beetroot","plant",3.555348,8,"correct",573.999772512614
"A1",96,"English","asparagus","plant",3.663562,9,"correct",532.999773919653
"A1",97,"English","mouse","animal",5.805135,5,"correct",398.999833660979
"A1",98,"English","dolphin","animal",4.007333,7,"correct",436.999914743235
"A1",100,"English","pineapple","plant",3.988984,9,"correct",457.999915675711
"A1",102,"English","lettuce","plant",4.812184,7,NA,NA
"A1",106,"English","sheep","animal",6.577861,5,"correct",441.000054927944
"A1",108,"English","cucumber","plant",4.454347,8,"correct",592.000216148708
"A1",109,"English","gherkin","plant",2.079442,7,"correct",502.999914439838
"A1",111,"English","gull","animal",4.418841,4,"correct",590.999989712996
"A1",113,"English","pig","animal",6.660575,3,"correct",494.000238509224
"A1",119,"English","camel","animal",6.109248,5,"correct",576.0001954392
"A1",120,"English","shark","animal",5.880533,5,"correct",449.000050403731
"A1",123,"English","vulture","animal",4.248495,7,"correct",676.999815238415
"A1",125,"English","snake","animal",6.120297,5,"correct",554.000173542032
"A1",126,"English","donkey","animal",5.541264,6,"correct",440.000120158602
"A1",127,"English","broccoli","plant",2.833213,8,"correct",475.000093083554
"A1",129,"English","apricot","plant",3.828641,7,"correct",791.000025495786
"A1",133,"English","leek","plant",3.332205,4,"correct",623.000299795489
"A1",134,"English","clove","plant",3.663562,5,"correct",563.000209357393
"A1",135,"English","banana","plant",5.023881,6,"correct",494.000238509224
"A1",136,"English","lion","animal",6.098074,4,"correct",450.999846884318
"A1",139,"English","elephant","animal",6.063785,8,"correct",558.999735506362
"A1",141,"English","hedgehog","animal",3.637586,8,"correct",995.999743445773
"A1",144,"English","eagle","animal",5.117994,5,"correct",547.99984275251
"A1",146,"English","apple","plant",6.304449,5,"correct",453.999910089237
"A1",148,"English","kiwi","plant",3.044522,4,"correct",646.999809457945
"A1",151,"English","wasp","animal",4.682131,4,"correct",809.999799390173
"A1",152,"English","cat","animal",7.086738,3,"correct",467.999861510562
"A1",153,"English","paprika","plant",2.484907,7,"correct",734.999633078657
"A1",157,"English","ant","animal",5.347108,3,"correct",875.999920339725
"A1",162,"English","bunny","animal",3.332205,5,"correct",581.999739420361
"A1",163,"English","beaver","animal",3.951244,6,"correct",530.999988720531
"A1",164,"English","horse","animal",7.77191,5,"correct",413.000168107128
"A1",167,"English","mushroom","plant",5.537334,8,"correct",464.000207767064
"A1",168,"English","woodpecker","animal",2.890372,10,"correct",540.999849144075
"A1",169,"English","moose","animal",2.70805,5,"correct",411.99985606802
"A1",170,"English","orange","plant",6.378426,6,"correct",486.999940058783
"A1",173,"English","avocado","plant",3.433987,7,"correct",489.999808358748
"A1",174,"English","chicken","animal",6.59987,7,"correct",364.999870942413
"A1",177,"English","butterfly","animal",5.214936,9,"correct",581.000141269057
"A1",179,"English","olive","plant",5.587249,5,"correct",393.00015253541
"A1",180,"English","swan","animal",4.962845,4,"correct",419.000033552626
"A1",182,"English","walnut","plant",4.49981,6,"correct",393.00015253541
"A1",184,"English","melon","plant",4.127134,5,"correct",535.000135410654
"A1",185,"English","monkey","animal",5.783825,6,"correct",420.000121263504
"A3",28,"Other","strawberry","plant",4.75359,10,"correct",608.000071764574
"A3",29,"Other","crocodile","animal",4.615121,9,"correct",552.999999158149
"A3",32,"Other","cherry","plant",4.997212,6,"correct",592.999763394396
"A3",34,"Other","bunny","animal",3.332205,5,"correct",574.999976541524
"A3",35,"Other","paprika","plant",2.484907,7,"correct",826.000187071693
"A3",36,"Other","lemon","plant",5.631212,5,"correct",524.0001654158
"A3",40,"Other","clove","plant",3.663562,5,"correct",547.000108075187
"A3",41,"Other","ant","animal",5.347108,3,"correct",607.000126826898
"A3",44,"Other","pig","animal",6.660575,3,"correct",562.000084359752
"A3",46,"Other","shark","animal",5.880533,5,"correct",602.999881373519
"A3",48,"Other","kiwi","plant",3.044522,4,"correct",551.999974455044
"A3",50,"Other","owl","animal",4.859812,3,"correct",653.999770147033
"A3",51,"Other","avocado","plant",3.433987,7,"correct",560.000121111664
"A3",52,"Other","fox","animal",5.652489,3,"correct",510.00013988365
"A3",55,"Other","goat","animal",6.228511,4,"correct",581.999739420361
"A3",56,"Other","walnut","plant",4.49981,6,"correct",560.000121111664
"A3",57,"Other","tortoise","animal",4.624973,8,NA,NA
"A3",58,"Other","goose","animal",5.267858,5,"correct",588.000030635608
"A3",61,"Other","eggplant","plant",1.791759,8,"correct",592.000216148708
"A3",64,"Other","moose","animal",2.70805,5,"correct",581.999739420361
"A3",65,"Other","gull","animal",4.418841,4,"correct",671.999771168483
"A3",67,"Other","eagle","animal",5.117994,5,"correct",520.000097980763
"A3",69,"Other","stork","animal",3.044522,5,"correct",524.999862139415
"A3",70,"Other","blueberry","plant",2.484907,9,"correct",602.999881373519
"A3",71,"Other","squid","animal",3.970292,5,"correct",534.000085995263
"A3",72,"Other","asparagus","plant",3.663562,9,"correct",630.000113787096
"A3",73,"Other","carrot","plant",4.976734,6,"correct",554.000173542032
"A3",74,"Other","lettuce","plant",4.812184,7,"correct",576.0001954392
"A3",75,"Other","snake","animal",6.120297,5,"correct",512.000191979808
"A3",79,"Other","hedgehog","animal",3.637586,8,"correct",902.000432903617
"A3",80,"Other","butterfly","animal",5.214936,9,"correct",588.000030635608
"A3",82,"Other","beaver","animal",3.951244,6,"correct",513.000079427401
"A3",83,"Other","banana","plant",5.023881,6,"correct",489.999808358748
"A3",85,"Other","cat","animal",7.086738,3,"correct",631.000086736501
"A3",89,"Other","elephant","animal",6.063785,8,"correct",578.000075907371
"A3",90,"Other","peanut","plant",4.59512,6,"correct",625.000218914787
"A3",93,"Other","cucumber","plant",4.454347,8,"correct",546.000013243282
"A3",96,"Other","chicken","animal",6.59987,7,"correct",524.999862139415
"A3",98,"Other","mustard","plant",4.442651,7,"correct",519.000060636907
"A3",100,"Other","apple","plant",6.304449,5,"correct",563.000209357393
"A3",105,"Other","monkey","animal",5.783825,6,"correct",479.00019284021
"A3",106,"Other","melon","plant",4.127134,5,"correct",539.0002312801
"A3",108,"Other","leek","plant",3.332205,4,"correct",520.999978246496
"A3",109,"Other","camel","animal",6.109248,5,"correct",520.000097980763
"A3",111,"Other","woodpecker","animal",2.890372,10,"correct",656.999987855611
"A3",115,"Other","reindeer","animal",4.043051,8,"correct",634.000028886799
"A3",116,"Other","donkey","animal",5.541264,6,"correct",604.999722891404
"A3",120,"Other","orange","plant",6.378426,6,"correct",513.999863556063
"A3",122,"Other","dolphin","animal",4.007333,7,"correct",625.000218914787
"A3",124,"Other","blackberry","plant",4.060443,10,"correct",587.000105760917
"A3",126,"Other","mole","animal",4.60517,4,"correct",649.000183859072
"A3",132,"Other","bat","animal",5.918894,3,"correct",634.000028886799
"A3",133,"Other","mouse","animal",5.805135,5,NA,NA
"A3",134,"Other","whale","animal",5.298317,5,"correct",588.999891829225
"A3",136,"Other","broccoli","plant",2.833213,8,"correct",628.999838535443
"A3",138,"Other","frog","animal",5.129899,4,"correct",578.999723485302
"A3",139,"Other","tomato","plant",5.545177,6,"correct",699.999765469656
"A3",143,"Other","almond","plant",4.204693,6,"correct",1146.00011772322
"A3",148,"Other","vulture","animal",4.248495,7,"correct",638.999709652821
"A3",149,"Other","mushroom","plant",5.537334,8,NA,NA
"A3",150,"Other","lion","animal",6.098074,4,"correct",578.999723485302
"A3",154,"Other","dog","animal",7.667626,3,"correct",513.999863556063
"A3",156,"Other","pear","plant",4.727388,4,NA,NA
"A3",157,"Other","radish","plant",3.044522,6,"correct",1252.00056132175
"A3",158,"Other","olive","plant",5.587249,5,"correct",594.999758700399
"A3",160,"Other","bee","animal",5.700444,3,"correct",614.000044117656
"A3",161,"Other","magpie","animal",2.995732,6,"correct",621.999942316233
"A3",162,"Other","potato","plant",6.461468,6,"correct",497.999961641724
"A3",163,"Other","pineapple","plant",3.988984,9,"correct",596.000198429084
"A3",165,"Other","wasp","animal",4.682131,4,"correct",739.000058419281
"A3",168,"Other","beetroot","plant",3.555348,8,"correct",638.999709652821
"A3",169,"Other","squirrel","animal",4.70953,8,"correct",611.999827102481
"A3",171,"Other","sheep","animal",6.577861,5,"correct",662.000293969766
"A3",175,"Other","apricot","plant",3.828641,7,"correct",532.999773919653
"A3",176,"Other","horse","animal",7.77191,5,"correct",614.999835299014
"A3",179,"Other","spider","animal",4.844187,6,"correct",623.000299795489
"A3",180,"Other","grape","plant",5.192957,5,"correct",643.000177315235
"A3",181,"Other","gherkin","plant",2.079442,7,"correct",627.99989545798
"A3",185,"Other","swan","animal",4.962845,4,"correct",590.000273229202
"C",23,"English","vulture","animal",4.248495,7,"correct",688.000111501868
"C",26,"English","camel","animal",6.109248,5,"correct",691.000121776551
"C",27,"English","kiwi","plant",3.044522,4,"correct",516.000121011528
"C",28,"English","avocado","plant",3.433987,7,"correct",611.999827102481
"C",29,"English","gull","animal",4.418841,4,"correct",535.999913666057
"C",31,"English","banana","plant",5.023881,6,"correct",648.000196763756
"C",33,"English","whale","animal",5.298317,5,NA,NA
"C",35,"English","donkey","animal",5.541264,6,"correct",601.000039344342
"C",36,"English","shark","animal",5.880533,5,"correct",490.999937252894
"C",38,"English","chicken","animal",6.59987,7,"correct",563.000209357393
"C",39,"English","monkey","animal",5.783825,6,"correct",479.999950127073
"C",41,"English","wasp","animal",4.682131,4,"correct",479.999950127073
"C",46,"English","cat","animal",7.086738,3,"correct",483.000167285837
"C",53,"English","eggplant","plant",1.791759,8,"correct",593.999810298619
"C",54,"English","gherkin","plant",2.079442,7,"correct",664.999972963858
"C",55,"English","bat","animal",5.918894,3,"correct",479.999950127073
"C",56,"English","bee","animal",5.700444,3,NA,NA
"C",59,"English","spider","animal",4.844187,6,"correct",547.000108075187
"C",60,"English","squid","animal",3.970292,5,"correct",496.999987029976
"C",62,"English","pineapple","plant",3.988984,9,"correct",599.000240728894
"C",66,"English","swan","animal",4.962845,4,"correct",653.999770147033
"C",67,"English","strawberry","plant",4.75359,10,"correct",540.999849144075
"C",69,"English","sheep","animal",6.577861,5,"correct",540.999849144075
"C",70,"English","walnut","plant",4.49981,6,"correct",529.999996530531
"C",72,"English","tortoise","animal",4.624973,8,"correct",663.000006506774
"C",73,"English","lion","animal",6.098074,4,"correct",520.999978246496
"C",74,"English","goat","animal",6.228511,4,"correct",510.00013988365
"C",76,"English","asparagus","plant",3.663562,9,"correct",590.000273229202
"C",78,"English","apricot","plant",3.828641,7,"correct",547.99984275251
"C",80,"English","pig","animal",6.660575,3,"correct",522.999757294102
"C",81,"English","apple","plant",6.304449,5,"correct",517.999874509603
"C",82,"English","mustard","plant",4.442651,7,"correct",534.000085995263
"C",83,"English","hedgehog","animal",3.637586,8,"correct",656.999987855611
"C",86,"English","ant","animal",5.347108,3,"correct",725.000250230404
"C",88,"English","fox","animal",5.652489,3,"correct",608.999836964695
"C",89,"English","elephant","animal",6.063785,8,"correct",581.999739420361
"C",90,"English","moose","animal",2.70805,5,"correct",499.999950788907
"C",91,"English","beetroot","plant",3.555348,8,"correct",531.999739670309
"C",93,"English","carrot","plant",4.976734,6,"correct",558.999735506362
"C",100,"English","snake","animal",6.120297,5,"correct",528.999771547009
"C",102,"English","olive","plant",5.587249,5,"correct",487.999801943704
"C",109,"English","pear","plant",4.727388,4,"correct",452.999943156189
"C",112,"English","butterfly","animal",5.214936,9,"correct",536.999949248742
"C",113,"English","blueberry","plant",2.484907,9,"correct",541.999999219712
"C",114,"English","mole","animal",4.60517,4,"correct",538.000236633012
"C",115,"English","cucumber","plant",4.454347,8,"correct",535.999913666057
"C",116,"English","orange","plant",6.378426,6,"correct",511.00020940595
"C",122,"English","lemon","plant",5.631212,5,"correct",486.000182784394
"C",124,"English","horse","animal",7.77191,5,"correct",623.999770137519
"C",127,"English","squirrel","animal",4.70953,8,"correct",584.000010028315
"C",130,"English","goose","animal",5.267858,5,"correct",470.000143489093
"C",131,"English","bunny","animal",3.332205,5,NA,NA
"C",134,"English","almond","plant",4.204693,6,"correct",627.000288023225
"C",135,"English","clove","plant",3.663562,5,"correct",479.999950127073
"C",137,"English","peanut","plant",4.59512,6,"correct",562.000084359752
"C",140,"English","beaver","animal",3.951244,6,"correct",656.000138452692
"C",141,"English","mushroom","plant",5.537334,8,"correct",479.00019284021
"C",144,"English","dog","animal",7.667626,3,"correct",558.000020991229
"C",145,"English","frog","animal",5.129899,4,"correct",795.999852067885
"C",146,"English","stork","animal",3.044522,5,"correct",551.000105156754
"C",148,"English","potato","plant",6.461468,6,"correct",616.000022463352
"C",150,"English","radish","plant",3.044522,6,"correct",729.000195365715
"C",151,"English","paprika","plant",2.484907,7,"correct",604.999722891404
"C",153,"English","blackberry","plant",4.060443,10,"correct",565.999955737
"C",159,"English","lettuce","plant",4.812184,7,NA,NA
"C",161,"English","mouse","animal",5.805135,5,"correct",588.000030635608
"C",162,"English","crocodile","animal",4.615121,9,"correct",475.000093083554
"C",164,"English","reindeer","animal",4.043051,8,"correct",644.999795666759
"C",165,"English","broccoli","plant",2.833213,8,"incorrect",525.999888099976
"C",168,"English","tomato","plant",5.545177,6,"correct",592.999763394396
"C",172,"English","leek","plant",3.332205,4,"correct",661.000105858044
"C",174,"English","magpie","animal",2.995732,6,"correct",617.999717291212
"C",175,"English","owl","animal",4.859812,3,"correct",479.00019284021
"C",177,"English","cherry","plant",4.997212,6,"correct",483.000167285837
"C",178,"English","eagle","animal",5.117994,5,"correct",540.999849144075
"C",179,"English","woodpecker","animal",2.890372,10,"correct",547.000108075187
"C",181,"English","dolphin","animal",4.007333,7,"correct",581.000141269057
"C",182,"English","melon","plant",4.127134,5,NA,NA
"C",184,"English","grape","plant",5.192957,5,"correct",510.00013988365
"D",24,"Other","peanut","plant",4.59512,6,"correct",508.999991575784
"D",28,"Other","swan","animal",4.962845,4,"correct",572.000004930756
"D",29,"Other","lettuce","plant",4.812184,7,"correct",587.000105760917
"D",30,"Other","walnut","plant",4.49981,6,"correct",552.999999158149
"D",32,"Other","beetroot","plant",3.555348,8,"correct",627.000288023225
"D",33,"Other","broccoli","plant",2.833213,8,"correct",535.999913666057
"D",37,"Other","spider","animal",4.844187,6,"correct",545.000111908544
"D",41,"Other","cucumber","plant",4.454347,8,"correct",637.99981922605
"D",44,"Other","blackberry","plant",4.060443,10,"correct",573.000162322477
"D",46,"Other","snake","animal",6.120297,5,"correct",590.000273229202
"D",47,"Other","cat","animal",7.086738,3,"correct",529.999996530531
"D",48,"Other","fox","animal",5.652489,3,"correct",538.000236633012
"D",49,"Other","gherkin","plant",2.079442,7,"correct",643.000177315235
"D",51,"Other","tomato","plant",5.545177,6,"correct",692.000030712573
"D",54,"Other","squirrel","animal",4.70953,8,"correct",646.999809457945
"D",56,"Other","woodpecker","animal",2.890372,10,"correct",563.000209357393
"D",59,"Other","squid","animal",3.970292,5,"correct",737.000079456463
"D",60,"Other","butterfly","animal",5.214936,9,"correct",625.000218914787
"D",61,"Other","orange","plant",6.378426,6,"correct",456.000086861448
"D",62,"Other","beaver","animal",3.951244,6,"correct",568.999752982172
"D",63,"Other","dog","animal",7.667626,3,"correct",456.000086861448
"D",64,"Other","banana","plant",5.023881,6,"correct",438.999818660037
"D",65,"Other","blueberry","plant",2.484907,9,"correct",480.999870079147
"D",66,"Other","donkey","animal",5.541264,6,"correct",506.00016734057
"D",67,"Other","pig","animal",6.660575,3,"correct",400.999828650102
"D",70,"Other","paprika","plant",2.484907,7,"correct",555.9998363967
"D",72,"Other","carrot","plant",4.976734,6,"correct",726.999652833214
"D",74,"Other","camel","animal",6.109248,5,"correct",499.999950788907
"D",76,"Other","whale","animal",5.298317,5,"correct",623.000299795489
"D",77,"Other","mouse","animal",5.805135,5,"correct",551.999974455044
"D",78,"Other","kiwi","plant",3.044522,4,"correct",515.000051158178
"D",80,"Other","avocado","plant",3.433987,7,"correct",631.999750899235
"D",85,"Other","cherry","plant",4.997212,6,"correct",524.0001654158
"D",86,"Other","owl","animal",4.859812,3,"correct",549.999846975437
"D",87,"Other","reindeer","animal",4.043051,8,"correct",675.000208661075
"D",89,"Other","lion","animal",6.098074,4,"correct",525.999888099976
"D",90,"Other","tortoise","animal",4.624973,8,"incorrect",525.999888099976
"D",91,"Other","olive","plant",5.587249,5,"correct",614.000044117656
"D",92,"Other","mole","animal",4.60517,4,"correct",578.999723485302
"D",97,"Other","apricot","plant",3.828641,7,"correct",588.999891829225
"D",99,"Other","shark","animal",5.880533,5,"correct",660.000108886498
"D",100,"Other","elephant","animal",6.063785,8,"correct",541.999999219712
"D",101,"Other","radish","plant",3.044522,6,"correct",582.999891357673
"D",108,"Other","bat","animal",5.918894,3,"correct",538.000236633012
"D",109,"Other","goat","animal",6.228511,4,"incorrect",549.999846975437
"D",110,"Other","bunny","animal",3.332205,5,"correct",599.000240728894
"D",111,"Other","grape","plant",5.192957,5,"correct",476.000069385849
"D",115,"Other","lemon","plant",5.631212,5,"correct",573.000162322477
"D",117,"Other","hedgehog","animal",3.637586,8,"correct",734.999633078657
"D",118,"Other","apple","plant",6.304449,5,"correct",492.000139485804
"D",123,"Other","horse","animal",7.77191,5,"correct",542.999826275901
"D",126,"Other","strawberry","plant",4.75359,10,"correct",551.000105156754
"D",128,"Other","stork","animal",3.044522,5,"correct",730.999663922989
"D",129,"Other","melon","plant",4.127134,5,"correct",573.999772512614
"D",130,"Other","gull","animal",4.418841,4,"incorrect",606.000008441996
"D",132,"Other","moose","animal",2.70805,5,"correct",644.00017638882
"D",133,"Other","sheep","animal",6.577861,5,"correct",563.000209357393
"D",136,"Other","goose","animal",5.267858,5,"correct",1049.99953469096
"D",138,"Other","ant","animal",5.347108,3,"correct",627.99989545798
"D",139,"Other","asparagus","plant",3.663562,9,"correct",696.000236407284
"D",140,"Other","monkey","animal",5.783825,6,"correct",515.000051158178
"D",149,"Other","pineapple","plant",3.988984,9,"correct",873.000387752114
"D",150,"Other","wasp","animal",4.682131,4,"correct",599.000240728894
"D",152,"Other","mushroom","plant",5.537334,8,"correct",673.999925245109
"D",155,"Other","leek","plant",3.332205,4,"correct",701.000079188757
"D",157,"Other","dolphin","animal",4.007333,7,"correct",628.999838535443
"D",160,"Other","almond","plant",4.204693,6,"correct",611.000024946156
"D",164,"Other","clove","plant",3.663562,5,"correct",734.999633078657
"D",168,"Other","mustard","plant",4.442651,7,"correct",636.000277715743
"D",169,"Other","pear","plant",4.727388,4,"correct",531.999739670309
"D",172,"Other","chicken","animal",6.59987,7,"correct",1079.00003748647
"D",175,"Other","eagle","animal",5.117994,5,"correct",778.999964266688
"D",176,"Other","vulture","animal",4.248495,7,"correct",888.999790628164
"D",177,"Other","frog","animal",5.129899,4,"correct",847.000258629749
"D",180,"Other","potato","plant",6.461468,6,"correct",715.000326973859
"D",181,"Other","magpie","animal",2.995732,6,"correct",573.999772512614
"D",183,"Other","bee","animal",5.700444,3,"correct",738.000129444863
"D",184,"Other","crocodile","animal",4.615121,9,NA,NA
"D",185,"Other","eggplant","plant",1.791759,8,"correct",827.999872169015
"I",24,"Other","dolphin","animal",4.007333,7,"correct",489.999808358748
"I",32,"Other","vulture","animal",4.248495,7,"correct",710.999694409961
"I",34,"Other","pig","animal",6.660575,3,"correct",511.00020940595
"I",35,"Other","cherry","plant",4.997212,6,"correct",662.000293969766
"I",36,"Other","orange","plant",6.378426,6,"correct",442.000052121661
"I",40,"Other","shark","animal",5.880533,5,"correct",443.000101870017
"I",41,"Other","crocodile","animal",4.615121,9,"correct",541.999999219712
"I",42,"Other","reindeer","animal",4.043051,8,"correct",579.999939946533
"I",43,"Other","lion","animal",6.098074,4,"correct",430.999961165286
"I",44,"Other","donkey","animal",5.541264,6,"correct",447.000181207772
"I",45,"Other","gull","animal",4.418841,4,"correct",644.999795666759
"I",46,"Other","blueberry","plant",2.484907,9,"correct",522.999757294102
"I",48,"Other","snake","animal",6.120297,5,"correct",1255.99956413273
"I",50,"Other","grape","plant",5.192957,5,"correct",393.00015253541
"I",51,"Other","carrot","plant",4.976734,6,"correct",367.000055763977
"I",52,"Other","butterfly","animal",5.214936,9,"correct",524.999862139415
"I",54,"Other","apple","plant",6.304449,5,"correct",415.999891731329
"I",56,"Other","lettuce","plant",4.812184,7,"correct",620.999949119312
"I",57,"Other","asparagus","plant",3.663562,9,"correct",653.999770147033
"I",58,"Other","goat","animal",6.228511,4,"correct",489.999808358748
"I",59,"Other","clove","plant",3.663562,5,"correct",429.000034779882
"I",63,"Other","bunny","animal",3.332205,5,"correct",582.999891357673
"I",67,"Other","swan","animal",4.962845,4,"correct",535.000135410654
"I",69,"Other","eggplant","plant",1.791759,8,"correct",555.9998363967
"I",71,"Other","strawberry","plant",4.75359,10,"correct",561.00005300177
"I",73,"Other","mustard","plant",4.442651,7,"correct",596.000198429084
"I",74,"Other","magpie","animal",2.995732,6,"correct",582.999891357673
"I",76,"Other","beaver","animal",3.951244,6,"correct",592.000216148708
"I",77,"Other","broccoli","plant",2.833213,8,"correct",941.999741349101
"I",78,"Other","elephant","animal",6.063785,8,"correct",466.99987966864
"I",79,"Other","banana","plant",5.023881,6,"correct",442.000052121661
"I",85,"Other","sheep","animal",6.577861,5,"correct",476.999765846319
"I",86,"Other","melon","plant",4.127134,5,"correct",512.000191979808
"I",87,"Other","almond","plant",4.204693,6,"correct",558.999735506362
"I",88,"Other","potato","plant",6.461468,6,"correct",394.000035736616
"I",90,"Other","hedgehog","animal",3.637586,8,"correct",562.000084359752
"I",93,"Other","leek","plant",3.332205,4,"correct",608.999836964695
"I",96,"Other","whale","animal",5.298317,5,"correct",467.999861510562
"I",98,"Other","tomato","plant",5.545177,6,"correct",423.999806981694
"I",102,"Other","mouse","animal",5.805135,5,"correct",387.999868226192
"I",105,"Other","ant","animal",5.347108,3,"correct",560.000121111664
"I",109,"Other","goose","animal",5.267858,5,"correct",519.000060636907
"I",110,"Other","paprika","plant",2.484907,7,"correct",602.999881373519
"I",111,"Other","woodpecker","animal",2.890372,10,"correct",932.000172713045
"I",115,"Other","pineapple","plant",3.988984,9,"correct",470.999955718269
"I",121,"Other","bat","animal",5.918894,3,"correct",473.999847516558
"I",125,"Other","cat","animal",7.086738,3,"correct",478.000127869101
"I",127,"Other","bee","animal",5.700444,3,"correct",403.000176535525
"I",130,"Other","avocado","plant",3.433987,7,"correct",473.999847516558
"I",132,"Other","eagle","animal",5.117994,5,"correct",432.000177878581
"I",133,"Other","olive","plant",5.587249,5,"correct",407.999928843108
"I",134,"Other","beetroot","plant",3.555348,8,"correct",498.999952219994
"I",135,"Other","frog","animal",5.129899,4,"correct",517.000064879146
"I",137,"Other","mushroom","plant",5.537334,8,"correct",576.999846224847
"I",138,"Other","gherkin","plant",2.079442,7,"correct",623.000299795489
"I",140,"Other","spider","animal",4.844187,6,"correct",481.999945027614
"I",146,"Other","fox","animal",5.652489,3,"correct",614.999835299014
"I",149,"Other","monkey","animal",5.783825,6,"correct",717.000114290081
"I",151,"Other","squirrel","animal",4.70953,8,"correct",496.000036344437
"I",153,"Other","mole","animal",4.60517,4,"correct",584.000010028315
"I",155,"Other","dog","animal",7.667626,3,"correct",522.999757294102
"I",156,"Other","peanut","plant",4.59512,6,"correct",486.000182784394
"I",157,"Other","owl","animal",4.859812,3,"correct",450.000187756075
"I",158,"Other","wasp","animal",4.682131,4,"correct",786.000163150661
"I",159,"Other","squid","animal",3.970292,5,"correct",443.000101870017
"I",163,"Other","pear","plant",4.727388,4,"correct",395.999916343235
"I",164,"Other","chicken","animal",6.59987,7,"correct",470.999955718269
"I",165,"Other","radish","plant",3.044522,6,"correct",429.999910264338
"I",168,"Other","cucumber","plant",4.454347,8,"correct",524.999862139415
"I",169,"Other","apricot","plant",3.828641,7,"correct",433.000117774938
"I",170,"Other","camel","animal",6.109248,5,"correct",372.99984347289
"I",171,"Other","blackberry","plant",4.060443,10,"correct",601.000039344342
"I",173,"Other","lemon","plant",5.631212,5,"correct",401.999964375155
"I",174,"Other","tortoise","animal",4.624973,8,"correct",601.999731924149
"I",176,"Other","kiwi","plant",3.044522,4,"correct",382.000149512317
"I",178,"Other","horse","animal",7.77191,5,"correct",406.999924524871
"I",182,"Other","stork","animal",3.044522,5,"correct",767.00015235133
"I",183,"Other","walnut","plant",4.49981,6,"correct",515.000051158178
"I",184,"Other","moose","animal",2.70805,5,"correct",486.999940058783
"J",23,"Other","beaver","animal",3.951244,6,"correct",824.000387354687
"J",26,"Other","hedgehog","animal",3.637586,8,"incorrect",434.999986476423
"J",27,"Other","gull","animal",4.418841,4,"correct",677.99980477644
"J",30,"Other","carrot","plant",4.976734,6,"correct",568.999752982172
"J",32,"Other","clove","plant",3.663562,5,"correct",568.999752982172
"J",36,"Other","mouse","animal",5.805135,5,"correct",663.000006506774
"J",38,"Other","bunny","animal",3.332205,5,"correct",941.999741349101
"J",42,"Other","pig","animal",6.660575,3,"correct",524.0001654158
"J",43,"Other","ant","animal",5.347108,3,"correct",516.000121011528
"J",44,"Other","eggplant","plant",1.791759,8,"correct",545.000111908544
"J",47,"Other","gherkin","plant",2.079442,7,"incorrect",489.999808358748
"J",49,"Other","wasp","animal",4.682131,4,"correct",673.999925245109
"J",50,"Other","fox","animal",5.652489,3,"correct",467.999861510562
"J",52,"Other","lemon","plant",5.631212,5,"correct",483.000167285837
"J",56,"Other","owl","animal",4.859812,3,"correct",576.0001954392
"J",57,"Other","dog","animal",7.667626,3,"correct",456.999821361383
"J",61,"Other","shark","animal",5.880533,5,"correct",573.999772512614
"J",65,"Other","apricot","plant",3.828641,7,"correct",578.000075907371
"J",67,"Other","whale","animal",5.298317,5,"correct",483.000167285837
"J",69,"Other","spider","animal",4.844187,6,"correct",558.000020991229
"J",70,"Other","pear","plant",4.727388,4,"correct",598.00014713754
"J",72,"Other","mushroom","plant",5.537334,8,"correct",451.999918715839
"J",75,"Other","squirrel","animal",4.70953,8,"correct",554.000173542032
"J",77,"Other","pineapple","plant",3.988984,9,"correct",536.999949248742
"J",79,"Other","chicken","animal",6.59987,7,NA,NA
"J",81,"Other","goat","animal",6.228511,4,"correct",525.999888099976
"J",83,"Other","crocodile","animal",4.615121,9,"incorrect",451.999918715839
"J",84,"Other","horse","animal",7.77191,5,"correct",548.999757611321
"J",89,"Other","tomato","plant",5.545177,6,"correct",473.999847516558
"J",93,"Other","broccoli","plant",2.833213,8,"correct",538.000236633012
"J",97,"Other","mole","animal",4.60517,4,"correct",725.000250230404
"J",98,"Other","bat","animal",5.918894,3,"correct",490.999937252894
"J",99,"Other","donkey","animal",5.541264,6,"incorrect",444.999874436041
"J",100,"Other","mustard","plant",4.442651,7,"correct",472.000006803618
"J",103,"Other","squid","animal",3.970292,5,"correct",560.000121111664
"J",108,"Other","frog","animal",5.129899,4,"correct",444.999874436041
"J",109,"Other","dolphin","animal",4.007333,7,"incorrect",444.999874436041
"J",112,"Other","reindeer","animal",4.043051,8,"incorrect",464.000207767064
"J",113,"Other","lion","animal",6.098074,4,"correct",420.000121263504
"J",115,"Other","potato","plant",6.461468,6,"correct",466.99987966864
"J",117,"Other","eagle","animal",5.117994,5,"correct",539.0002312801
"J",118,"Other","blackberry","plant",4.060443,10,"correct",535.000135410654
"J",120,"Other","camel","animal",6.109248,5,"correct",569.999794327737
"J",121,"Other","radish","plant",3.044522,6,"correct",492.000139485804
"J",122,"Other","beetroot","plant",3.555348,8,"correct",527.000237918756
"J",123,"Other","apple","plant",6.304449,5,"correct",446.000021399052
"J",124,"Other","grape","plant",5.192957,5,"correct",423.999806981694
"J",128,"Other","cucumber","plant",4.454347,8,"correct",558.000020991229
"J",130,"Other","cherry","plant",4.997212,6,"correct",456.000086861448
"J",131,"Other","butterfly","animal",5.214936,9,"correct",596.999932304621
"J",133,"Other","vulture","animal",4.248495,7,"correct",565.000151902281
"J",134,"Other","walnut","plant",4.49981,6,"correct",608.999836964695
"J",137,"Other","magpie","animal",2.995732,6,"correct",710.999694409961
"J",138,"Other","strawberry","plant",4.75359,10,"correct",539.0002312801
"J",139,"Other","banana","plant",5.023881,6,"correct",438.000039255118
"J",141,"Other","elephant","animal",6.063785,8,"correct",554.999936870732
"J",144,"Other","stork","animal",3.044522,5,"correct",814.999907708702
"J",147,"Other","olive","plant",5.587249,5,"correct",495.000117528512
"J",152,"Other","goose","animal",5.267858,5,"incorrect",440.000120158602
"J",154,"Other","swan","animal",4.962845,4,"correct",534.000085995263
"J",156,"Other","almond","plant",4.204693,6,"correct",601.999731924149
"J",159,"Other","asparagus","plant",3.663562,9,"incorrect",394.000035736616
"J",160,"Other","leek","plant",3.332205,4,"incorrect",475.000093083554
"J",162,"Other","orange","plant",6.378426,6,"correct",447.000181207772
"J",163,"Other","woodpecker","animal",2.890372,10,"incorrect",369.000131349069
"J",166,"Other","tortoise","animal",4.624973,8,"correct",563.999858155113
"J",168,"Other","lettuce","plant",4.812184,7,"correct",524.999862139415
"J",169,"Other","cat","animal",7.086738,3,"correct",458.99990358222
"J",170,"Other","sheep","animal",6.577861,5,"correct",451.999918715839
"J",172,"Other","avocado","plant",3.433987,7,"correct",554.000173542032
"J",173,"Other","kiwi","plant",3.044522,4,"correct",460.999980178545
"J",175,"Other","melon","plant",4.127134,5,"correct",497.999961641724
"J",176,"Other","snake","animal",6.120297,5,"correct",475.000093083554
"J",177,"Other","moose","animal",2.70805,5,"correct",458.99990358222
"J",178,"Other","monkey","animal",5.783825,6,"correct",497.999961641724
"J",179,"Other","blueberry","plant",2.484907,9,"incorrect",435.999893899834
"J",180,"Other","paprika","plant",2.484907,7,"incorrect",554.000173542032
"J",181,"Other","peanut","plant",4.59512,6,"correct",508.999991575784
"J",182,"Other","bee","animal",5.700444,3,"correct",438.999818660037
"K",23,"English","owl","animal",4.859812,3,"correct",407.999928843108
"K",24,"English","chicken","animal",6.59987,7,"correct",434.999986476423
"K",30,"English","vulture","animal",4.248495,7,"correct",459.99977483781
"K",32,"English","orange","plant",6.378426,6,"correct",450.000187756075
"K",33,"English","blackberry","plant",4.060443,10,"correct",551.000105156754
"K",34,"English","lion","animal",6.098074,4,"correct",403.000176535525
"K",35,"English","sheep","animal",6.577861,5,"correct",466.00017049748
"K",36,"English","wasp","animal",4.682131,4,"correct",446.000021399052
"K",41,"English","avocado","plant",3.433987,7,"correct",447.999895878099
"K",45,"English","radish","plant",3.044522,6,"correct",433.000117774938
"K",48,"English","stork","animal",3.044522,5,"correct",500.999949356485
"K",50,"English","dolphin","animal",4.007333,7,"correct",404.000049303698
"K",51,"English","fox","animal",5.652489,3,"incorrect",434.999986476423
"K",53,"English","grape","plant",5.192957,5,"correct",495.000117528512
"K",54,"English","spider","animal",4.844187,6,"correct",433.000117774938
"K",58,"English","lettuce","plant",4.812184,7,"correct",507.999772630182
"K",63,"English","cucumber","plant",4.454347,8,"correct",573.999772512614
"K",64,"English","bat","animal",5.918894,3,"correct",542.999826275901
"K",74,"English","goose","animal",5.267858,5,NA,NA
"K",76,"English","leek","plant",3.332205,4,"correct",554.999936870732
"K",78,"English","clove","plant",3.663562,5,"correct",464.999811401918
"K",79,"English","elephant","animal",6.063785,8,"correct",458.99990358222
"K",80,"English","woodpecker","animal",2.890372,10,"correct",549.999846975437
"K",82,"English","pear","plant",4.727388,4,NA,NA
"K",83,"English","lemon","plant",5.631212,5,"incorrect",347.999833038523
"K",84,"English","squirrel","animal",4.70953,8,"correct",460.999980178545
"K",86,"English","gherkin","plant",2.079442,7,"correct",488.999760646846
"K",87,"English","olive","plant",5.587249,5,"correct",424.999928207129
"K",92,"English","monkey","animal",5.783825,6,"correct",470.000143489093
"K",95,"English","cat","animal",7.086738,3,"correct",450.999846884318
"K",98,"English","goat","animal",6.228511,4,"correct",472.000006803618
"K",99,"English","potato","plant",6.461468,6,"incorrect",363.000060161864
"K",100,"English","camel","animal",6.109248,5,"correct",470.000143489093
"K",101,"English","apricot","plant",3.828641,7,"correct",454.999809377357
"K",106,"English","swan","animal",4.962845,4,"correct",478.000127869101
"K",108,"English","bunny","animal",3.332205,5,"correct",419.000033552626
"K",111,"English","peanut","plant",4.59512,6,"correct",558.999735506362
"K",112,"English","pineapple","plant",3.988984,9,"correct",496.999987029976
"K",113,"English","magpie","animal",2.995732,6,"incorrect",504.99978321599
"K",114,"English","walnut","plant",4.49981,6,"incorrect",617.999717291212
"K",117,"English","paprika","plant",2.484907,7,"correct",573.999772512614
"K",119,"English","crocodile","animal",4.615121,9,"correct",484.000045149152
"K",120,"English","apple","plant",6.304449,5,"correct",486.999940058783
"K",121,"English","carrot","plant",4.976734,6,"correct",821.999675263884
"K",123,"English","moose","animal",2.70805,5,"correct",490.999937252894
"K",124,"English","mouse","animal",5.805135,5,"incorrect",489.999808358748
"K",127,"English","reindeer","animal",4.043051,8,"correct",535.999913666057
"K",128,"English","eagle","animal",5.117994,5,"correct",462.999974958074
"K",129,"English","mushroom","plant",5.537334,8,"correct",486.999940058783
"K",130,"English","beaver","animal",3.951244,6,"correct",720.999901017558
"K",131,"English","asparagus","plant",3.663562,9,"correct",545.000111908544
"K",134,"English","donkey","animal",5.541264,6,"correct",435.999893899834
"K",136,"English","frog","animal",5.129899,4,"correct",561.00005300177
"K",137,"English","horse","animal",7.77191,5,"correct",436.999914743235
"K",140,"English","shark","animal",5.880533,5,"correct",476.000069385849
"K",142,"English","strawberry","plant",4.75359,10,"correct",637.00021940057
"K",144,"English","cherry","plant",4.997212,6,"correct",487.999801943704
"K",147,"English","bee","animal",5.700444,3,"correct",574.999976541524
"K",150,"English","squid","animal",3.970292,5,"correct",576.999846224847
"K",151,"English","beetroot","plant",3.555348,8,"correct",685.000110790384
"K",152,"English","melon","plant",4.127134,5,"correct",558.000020991229
"K",153,"English","almond","plant",4.204693,6,"correct",551.999974455044
"K",154,"English","kiwi","plant",3.044522,4,"correct",513.000079427401
"K",155,"English","tomato","plant",5.545177,6,"correct",398.999833660979
"K",156,"English","pig","animal",6.660575,3,"correct",416.99990750991
"K",157,"English","mole","animal",4.60517,4,"correct",384.999871299224
"K",158,"English","whale","animal",5.298317,5,"correct",419.000033552626
"K",159,"English","broccoli","plant",2.833213,8,"correct",470.000143489093
"K",160,"English","snake","animal",6.120297,5,"correct",444.000194280135
"K",162,"English","banana","plant",5.023881,6,"correct",435.999893899834
"K",164,"English","eggplant","plant",1.791759,8,"correct",435.999893899834
"K",165,"English","butterfly","animal",5.214936,9,"correct",409.99993452368
"K",167,"English","blueberry","plant",2.484907,9,"correct",481.999945027614
"K",168,"English","hedgehog","animal",3.637586,8,"correct",661.000105858044
"K",173,"English","gull","animal",4.418841,4,"correct",539.0002312801
"K",178,"English","dog","animal",7.667626,3,"correct",656.000138452692
"K",182,"English","mustard","plant",4.442651,7,"correct",456.000086861448
"K",183,"English","ant","animal",5.347108,3,"correct",442.000052121661
"K",185,"English","tortoise","animal",4.624973,8,"correct",601.000039344342
"M1",25,"English","pear","plant",4.727388,4,"correct",429.000034779882
"M1",27,"English","beaver","animal",3.951244,6,"correct",449.000050403731
"M1",31,"English","almond","plant",4.204693,6,"correct",556.999866360519
"M1",32,"English","squid","animal",3.970292,5,"correct",576.999846224847
"M1",33,"English","eagle","animal",5.117994,5,"correct",454.999809377357
"M1",34,"English","camel","animal",6.109248,5,NA,NA
"M1",35,"English","magpie","animal",2.995732,6,"correct",429.999910264338
"M1",37,"English","reindeer","animal",4.043051,8,"correct",527.000237918756
"M1",39,"English","tomato","plant",5.545177,6,"correct",462.999974958074
"M1",40,"English","shark","animal",5.880533,5,"correct",492.999914196961
"M1",42,"English","olive","plant",5.587249,5,"correct",499.999950788907
"M1",45,"English","gull","animal",4.418841,4,"correct",596.999932304621
"M1",47,"English","monkey","animal",5.783825,6,"correct",444.000194280135
"M1",48,"English","mouse","animal",5.805135,5,"correct",475.000093083554
"M1",55,"English","hedgehog","animal",3.637586,8,"correct",538.000236633012
"M1",59,"English","horse","animal",7.77191,5,"correct",469.000108598708
"M1",60,"English","snake","animal",6.120297,5,"correct",457.999915675711
"M1",62,"English","lion","animal",6.098074,4,"correct",447.000181207772
"M1",63,"English","cherry","plant",4.997212,6,"correct",467.999861510562
"M1",65,"English","swan","animal",4.962845,4,"correct",430.999961165286
"M1",66,"English","goose","animal",5.267858,5,"correct",469.000108598708
"M1",68,"English","mole","animal",4.60517,4,"correct",420.000121263504
"M1",70,"English","frog","animal",5.129899,4,"correct",434.999986476423
"M1",71,"English","apple","plant",6.304449,5,"correct",451.999918715839
"M1",72,"English","crocodile","animal",4.615121,9,"incorrect",466.00017049748
"M1",73,"English","elephant","animal",6.063785,8,"correct",539.999924638512
"M1",75,"English","bat","animal",5.918894,3,"correct",490.999937252894
"M1",79,"English","chicken","animal",6.59987,7,"correct",576.0001954392
"M1",83,"English","mushroom","plant",5.537334,8,"correct",472.000006803618
"M1",85,"English","gherkin","plant",2.079442,7,"incorrect",407.999928843108
"M1",86,"English","tortoise","animal",4.624973,8,"correct",596.000198429084
"M1",88,"English","lettuce","plant",4.812184,7,"correct",479.999950127073
"M1",90,"English","donkey","animal",5.541264,6,"correct",462.999974958074
"M1",93,"English","kiwi","plant",3.044522,4,"correct",417.999819204691
"M1",96,"English","carrot","plant",4.976734,6,"correct",430.999961165286
"M1",101,"English","stork","animal",3.044522,5,"correct",570.999880286431
"M1",107,"English","potato","plant",6.461468,6,"correct",457.999915675711
"M1",109,"English","spider","animal",4.844187,6,"correct",515.000051158178
"M1",110,"English","orange","plant",6.378426,6,"correct",467.999861510562
"M1",112,"English","leek","plant",3.332205,4,"correct",524.999862139415
"M1",115,"English","pineapple","plant",3.988984,9,"correct",456.000086861448
"M1",116,"English","apricot","plant",3.828641,7,"correct",419.000033552626
"M1",119,"English","mustard","plant",4.442651,7,"correct",484.000045149152
"M1",120,"English","walnut","plant",4.49981,6,"correct",549.999846975437
"M1",121,"English","blueberry","plant",2.484907,9,"correct",515.000051158178
"M1",125,"English","cucumber","plant",4.454347,8,"correct",453.999910089237
"M1",126,"English","blackberry","plant",4.060443,10,"correct",480.999870079147
"M1",127,"English","asparagus","plant",3.663562,9,"correct",485.000052895323
"M1",129,"English","broccoli","plant",2.833213,8,"correct",462.000050320239
"M1",130,"English","cat","animal",7.086738,3,"correct",430.999961165286
"M1",133,"English","radish","plant",3.044522,6,"correct",425.999852489274
"M1",135,"English","banana","plant",5.023881,6,"correct",1158.00039588212
"M1",136,"English","butterfly","animal",5.214936,9,"correct",515.000051158178
"M1",137,"English","beetroot","plant",3.555348,8,NA,NA
"M1",138,"English","squirrel","animal",4.70953,8,"correct",451.999918715839
"M1",140,"English","goat","animal",6.228511,4,"correct",464.000207767064
"M1",143,"English","lemon","plant",5.631212,5,"correct",464.000207767064
"M1",144,"English","woodpecker","animal",2.890372,10,"correct",534.000085995263
"M1",145,"English","owl","animal",4.859812,3,"correct",441.000054927944
"M1",146,"English","sheep","animal",6.577861,5,"correct",435.999893899834
"M1",147,"English","fox","animal",5.652489,3,"correct",416.99990750991
"M1",148,"English","peanut","plant",4.59512,6,"correct",379.999903966248
"M1",149,"English","vulture","animal",4.248495,7,NA,NA
"M1",151,"English","bunny","animal",3.332205,5,"correct",426.999994351377
"M1",156,"English","clove","plant",3.663562,5,"correct",549.999846975437
"M1",158,"English","eggplant","plant",1.791759,8,"incorrect",438.999818660037
"M1",165,"English","pig","animal",6.660575,3,"correct",479.999950127073
"M1",168,"English","moose","animal",2.70805,5,"correct",472.000006803618
"M1",169,"English","whale","animal",5.298317,5,"correct",480.999870079147
"M1",170,"English","bee","animal",5.700444,3,"correct",433.000117774938
"M1",171,"English","ant","animal",5.347108,3,"correct",426.999994351377
"M1",173,"English","paprika","plant",2.484907,7,"correct",540.999849144075
"M1",174,"English","avocado","plant",3.433987,7,"correct",456.000086861448
"M1",175,"English","dog","animal",7.667626,3,"correct",403.000176535525
"M1",178,"English","grape","plant",5.192957,5,"correct",459.99977483781
"M1",179,"English","strawberry","plant",4.75359,10,"correct",470.999955718269
"M1",180,"English","dolphin","animal",4.007333,7,"correct",473.999847516558
"M1",183,"English","melon","plant",4.127134,5,"correct",546.000013243282
"M1",184,"English","wasp","animal",4.682131,4,"correct",561.00005300177
"M2",23,"Other","paprika","plant",2.484907,7,"incorrect",941.999741349101
"M2",25,"Other","mustard","plant",4.442651,7,"correct",717.000114290081
"M2",26,"Other","potato","plant",6.461468,6,"correct",668.999959774217
"M2",29,"Other","grape","plant",5.192957,5,"correct",628.999838535443
"M2",30,"Other","donkey","animal",5.541264,6,"correct",628.999838535443
"M2",31,"Other","kiwi","plant",3.044522,4,"correct",581.000141269057
"M2",38,"Other","crocodile","animal",4.615121,9,"correct",923.999933803086
"M2",39,"Other","eggplant","plant",1.791759,8,"correct",835.000229749568
"M2",44,"Other","clove","plant",3.663562,5,NA,NA
"M2",45,"Other","bat","animal",5.918894,3,"correct",733.999978996946
"M2",47,"Other","chicken","animal",6.59987,7,"correct",594.999758700399
"M2",48,"Other","cucumber","plant",4.454347,8,"correct",649.000183859072
"M2",49,"Other","owl","animal",4.859812,3,"correct",619.999703615806
"M2",50,"Other","lettuce","plant",4.812184,7,"correct",534.000085995263
"M2",51,"Other","sheep","animal",6.577861,5,"correct",578.999723485302
"M2",54,"Other","radish","plant",3.044522,6,"correct",881.999950602012
"M2",55,"Other","wasp","animal",4.682131,4,"correct",1118.00038714665
"M2",57,"Other","avocado","plant",3.433987,7,"correct",810.999956112401
"M2",58,"Other","frog","animal",5.129899,4,"correct",535.999913666057
"M2",59,"Other","moose","animal",2.70805,5,"correct",738.000129444863
"M2",62,"Other","tomato","plant",5.545177,6,"correct",625.999767691382
"M2",64,"Other","reindeer","animal",4.043051,8,"correct",1099.00005011042
"M2",66,"Other","elephant","animal",6.063785,8,"correct",869.999815865712
"M2",70,"Other","fox","animal",5.652489,3,"correct",635.000000703141
"M2",71,"Other","spider","animal",4.844187,6,"correct",649.999764121749
"M2",73,"Other","mouse","animal",5.805135,5,"correct",535.000135410654
"M2",75,"Other","broccoli","plant",2.833213,8,"correct",691.000121776551
"M2",76,"Other","pig","animal",6.660575,3,"correct",513.999863556063
"M2",77,"Other","carrot","plant",4.976734,6,"correct",534.000085995263
"M2",78,"Other","blueberry","plant",2.484907,9,"correct",672.999778149135
"M2",80,"Other","olive","plant",5.587249,5,"correct",549.999846975437
"M2",84,"Other","walnut","plant",4.49981,6,"correct",791.999689683035
"M2",88,"Other","dog","animal",7.667626,3,"correct",590.000273229202
"M2",89,"Other","pear","plant",4.727388,4,"correct",551.999974455044
"M2",90,"Other","eagle","animal",5.117994,5,"correct",522.000215125307
"M2",94,"Other","tortoise","animal",4.624973,8,"incorrect",821.999675263884
"M2",95,"Other","bee","animal",5.700444,3,"correct",565.000151902281
"M2",103,"Other","lemon","plant",5.631212,5,"correct",694.000027408278
"M2",105,"Other","leek","plant",3.332205,4,"correct",1709.00054155554
"M2",106,"Other","hedgehog","animal",3.637586,8,"correct",1641.99952379975
"M2",107,"Other","asparagus","plant",3.663562,9,"correct",797.00025600424
"M2",111,"Other","squirrel","animal",4.70953,8,"correct",1502.00025184925
"M2",113,"Other","whale","animal",5.298317,5,"correct",772.000347380951
"M2",114,"Other","almond","plant",4.204693,6,"correct",958.000212703939
"M2",115,"Other","beetroot","plant",3.555348,8,"correct",871.00002016147
"M2",117,"Other","ant","animal",5.347108,3,"correct",529.999996530531
"M2",119,"Other","swan","animal",4.962845,4,"correct",646.999809457945
"M2",120,"Other","orange","plant",6.378426,6,NA,NA
"M2",122,"Other","snake","animal",6.120297,5,"correct",543.999865710384
"M2",123,"Other","shark","animal",5.880533,5,"correct",628.999838535443
"M2",126,"Other","camel","animal",6.109248,5,"correct",542.999826275901
"M2",127,"Other","cherry","plant",4.997212,6,"correct",501.999939914756
"M2",128,"Other","monkey","animal",5.783825,6,"correct",522.000215125307
"M2",129,"Other","goose","animal",5.267858,5,"correct",443.000101870017
"M2",130,"Other","melon","plant",4.127134,5,"correct",566.999827786391
"M2",131,"Other","stork","animal",3.044522,5,"correct",701.999716373938
"M2",132,"Other","gull","animal",4.418841,4,"incorrect",956.000083122864
"M2",136,"Other","gherkin","plant",2.079442,7,"incorrect",701.999716373938
"M2",140,"Other","horse","animal",7.77191,5,"correct",614.999835299014
"M2",154,"Other","banana","plant",5.023881,6,"correct",492.999914196961
"M2",155,"Other","butterfly","animal",5.214936,9,"correct",590.000273229202
"M2",157,"Other","bunny","animal",3.332205,5,"correct",795.999852067885
"M2",158,"Other","apple","plant",6.304449,5,"correct",596.000198429084
"M2",159,"Other","strawberry","plant",4.75359,10,"correct",630.000113787096
"M2",160,"Other","blackberry","plant",4.060443,10,"correct",611.000024946156
"M2",161,"Other","mushroom","plant",5.537334,8,"correct",556.999866360519
"M2",162,"Other","goat","animal",6.228511,4,"correct",678.999913387651
"M2",164,"Other","squid","animal",3.970292,5,"correct",600.000206870348
"M2",166,"Other","beaver","animal",3.951244,6,"correct",594.999758700399
"M2",168,"Other","cat","animal",7.086738,3,"correct",532.999773919653
"M2",170,"Other","mole","animal",4.60517,4,"correct",540.999849144075
"M2",172,"Other","apricot","plant",3.828641,7,"correct",707.99993366485
"M2",173,"Other","dolphin","animal",4.007333,7,"correct",710.000021274894
"M2",174,"Other","magpie","animal",2.995732,6,"correct",1227.9998665077
"M2",179,"Other","vulture","animal",4.248495,7,"correct",1180.00033339759
"M2",181,"Other","peanut","plant",4.59512,6,"correct",620.999949119312
"M2",182,"Other","woodpecker","animal",2.890372,10,"correct",936.999735542636
"M2",183,"Other","pineapple","plant",3.988984,9,"correct",536.999949248742
"M2",185,"Other","lion","animal",6.098074,4,"correct",634.000028886799
"P",23,"Other","moose","animal",2.70805,5,"incorrect",1102.99997876339
"P",25,"Other","pineapple","plant",3.988984,9,"correct",603.999880447383
"P",28,"Other","fox","animal",5.652489,3,"correct",643.000177315235
"P",29,"Other","gull","animal",4.418841,4,"correct",627.99989545798
"P",31,"Other","whale","animal",5.298317,5,"correct",601.000039344342
"P",32,"Other","snake","animal",6.120297,5,"correct",495.000117528512
"P",33,"Other","crocodile","animal",4.615121,9,"correct",563.000209357393
"P",40,"Other","squirrel","animal",4.70953,8,"correct",778.999964266688
"P",43,"Other","mustard","plant",4.442651,7,"correct",590.000273229202
"P",47,"Other","eagle","animal",5.117994,5,"correct",563.999858155113
"P",48,"Other","elephant","animal",6.063785,8,"correct",546.000013243282
"P",49,"Other","apple","plant",6.304449,5,"correct",470.000143489093
"P",50,"Other","cat","animal",7.086738,3,"correct",522.999757294102
"P",51,"Other","almond","plant",4.204693,6,"correct",517.999874509603
"P",54,"Other","lion","animal",6.098074,4,"correct",532.999773919653
"P",58,"Other","cherry","plant",4.997212,6,"correct",686.999799243275
"P",59,"Other","goat","animal",6.228511,4,"correct",504.99978321599
"P",60,"Other","hedgehog","animal",3.637586,8,"correct",894.000200994901
"P",61,"Other","sheep","animal",6.577861,5,"correct",501.999939914756
"P",65,"Other","beetroot","plant",3.555348,8,"correct",643.000177315235
"P",66,"Other","kiwi","plant",3.044522,4,"correct",560.000121111664
"P",68,"Other","vulture","animal",4.248495,7,"correct",861.00042668783
"P",71,"Other","pig","animal",6.660575,3,"correct",594.999758700399
"P",73,"Other","clove","plant",3.663562,5,"correct",644.00017638882
"P",74,"Other","avocado","plant",3.433987,7,"correct",608.999836964695
"P",75,"Other","blackberry","plant",4.060443,10,"correct",570.999880286431
"P",79,"Other","horse","animal",7.77191,5,"correct",584.000010028315
"P",82,"Other","pear","plant",4.727388,4,"correct",752.9998284667
"P",83,"Other","owl","animal",4.859812,3,"correct",623.999770137519
"P",84,"Other","mole","animal",4.60517,4,"correct",494.000238509224
"P",85,"Other","goose","animal",5.267858,5,"correct",547.000108075187
"P",87,"Other","donkey","animal",5.541264,6,"correct",616.000022463352
"P",88,"Other","bunny","animal",3.332205,5,"correct",864.000199753319
"P",89,"Other","gherkin","plant",2.079442,7,"correct",960.99960697963
"P",90,"Other","spider","animal",4.844187,6,"correct",660.000108886498
"P",93,"Other","tortoise","animal",4.624973,8,"correct",699.999765469656
"P",97,"Other","shark","animal",5.880533,5,"correct",628.999838535443
"P",98,"Other","melon","plant",4.127134,5,"correct",535.000135410654
"P",99,"Other","broccoli","plant",2.833213,8,"correct",631.000086736501
"P",101,"Other","carrot","plant",4.976734,6,"correct",573.999772512614
"P",102,"Other","leek","plant",3.332205,4,"correct",767.00015235133
"P",105,"Other","magpie","animal",2.995732,6,"correct",1194.99944508322
"P",108,"Other","mushroom","plant",5.537334,8,"correct",625.000218914787
"P",109,"Other","orange","plant",6.378426,6,"correct",522.999757294102
"P",110,"Other","swan","animal",4.962845,4,"correct",558.999735506362
"P",111,"Other","apricot","plant",3.828641,7,"correct",528.999771547009
"P",112,"Other","paprika","plant",2.484907,7,"correct",558.999735506362
"P",114,"Other","reindeer","animal",4.043051,8,"correct",875.000099437093
"P",115,"Other","ant","animal",5.347108,3,"correct",532.999773919653
"P",117,"Other","strawberry","plant",4.75359,10,"correct",531.999739670309
"P",121,"Other","dog","animal",7.667626,3,"correct",554.000173542032
"P",123,"Other","frog","animal",5.129899,4,"correct",536.999949248742
"P",128,"Other","olive","plant",5.587249,5,"correct",673.999925245109
"P",129,"Other","wasp","animal",4.682131,4,"correct",578.000075907371
"P",131,"Other","butterfly","animal",5.214936,9,"correct",663.999900747655
"P",132,"Other","lettuce","plant",4.812184,7,"correct",542.999826275901
"P",134,"Other","potato","plant",6.461468,6,"correct",479.00019284021
"P",135,"Other","peanut","plant",4.59512,6,"correct",481.999945027614
"P",137,"Other","banana","plant",5.023881,6,"correct",541.999999219712
"P",138,"Other","bee","animal",5.700444,3,"correct",618.999831208258
"P",141,"Other","blueberry","plant",2.484907,9,"correct",707.99993366485
"P",142,"Other","tomato","plant",5.545177,6,"correct",560.000121111664
"P",146,"Other","walnut","plant",4.49981,6,"correct",920.000303560411
"P",147,"Other","lemon","plant",5.631212,5,"correct",581.000141269057
"P",149,"Other","stork","animal",3.044522,5,"correct",1029.99991633961
"P",153,"Other","mouse","animal",5.805135,5,"correct",670.00019270207
"P",156,"Other","asparagus","plant",3.663562,9,"correct",741.000277655652
"P",160,"Other","beaver","animal",3.951244,6,"correct",653.999770147033
"P",161,"Other","chicken","animal",6.59987,7,"correct",565.999955737
"P",162,"Other","bat","animal",5.918894,3,"correct",554.999936870732
"P",164,"Other","eggplant","plant",1.791759,8,"correct",581.000141269057
"P",165,"Other","squid","animal",3.970292,5,"correct",639.999887133631
"P",167,"Other","monkey","animal",5.783825,6,"correct",554.000173542032
"P",168,"Other","dolphin","animal",4.007333,7,"correct",634.000028886799
"P",170,"Other","woodpecker","animal",2.890372,10,"correct",686.999799243275
"P",171,"Other","cucumber","plant",4.454347,8,"correct",670.999908092008
"P",173,"Other","radish","plant",3.044522,6,"correct",513.000079427401
"P",175,"Other","grape","plant",5.192957,5,"correct",470.999955718269
"P",178,"Other","camel","animal",6.109248,5,"correct",496.999987029976
"R1",25,"English","bee","animal",5.700444,3,"correct",489.999808358748
"R1",30,"English","ant","animal",5.347108,3,"correct",483.000167285837
"R1",31,"English","paprika","plant",2.484907,7,"correct",606.000008441996
"R1",32,"English","monkey","animal",5.783825,6,"correct",531.999739670309
"R1",33,"English","goose","animal",5.267858,5,"correct",475.000093083554
"R1",40,"English","avocado","plant",3.433987,7,"correct",565.000151902281
"R1",43,"English","camel","animal",6.109248,5,"correct",522.000215125307
"R1",44,"English","bunny","animal",3.332205,5,"correct",492.000139485804
"R1",45,"English","spider","animal",4.844187,6,"correct",460.999980178545
"R1",46,"English","fox","animal",5.652489,3,"correct",483.000167285837
"R1",47,"English","blackberry","plant",4.060443,10,"correct",473.999847516558
"R1",48,"English","almond","plant",4.204693,6,"correct",395.999916343235
"R1",49,"English","crocodile","animal",4.615121,9,"correct",481.999945027614
"R1",51,"English","owl","animal",4.859812,3,"correct",510.00013988365
"R1",55,"English","swan","animal",4.962845,4,"correct",596.000198429084
"R1",56,"English","carrot","plant",4.976734,6,"correct",530.999988720531
"R1",58,"English","goat","animal",6.228511,4,"incorrect",492.000139485804
"R1",63,"English","mustard","plant",4.442651,7,"correct",494.000238509224
"R1",68,"English","banana","plant",5.023881,6,"correct",510.00013988365
"R1",70,"English","apricot","plant",3.828641,7,"correct",531.999739670309
"R1",71,"English","hedgehog","animal",3.637586,8,"incorrect",452.999943156189
"R1",72,"English","clove","plant",3.663562,5,"correct",551.999974455044
"R1",76,"English","asparagus","plant",3.663562,9,"correct",535.000135410654
"R1",77,"English","beaver","animal",3.951244,6,"correct",772.999962441924
"R1",80,"English","reindeer","animal",4.043051,8,"correct",563.000209357393
"R1",84,"English","lion","animal",6.098074,4,"correct",596.999932304621
"R1",85,"English","chicken","animal",6.59987,7,"correct",466.00017049748
"R1",88,"English","gherkin","plant",2.079442,7,"correct",515.000051158178
"R1",89,"English","pineapple","plant",3.988984,9,"correct",498.999952219994
"R1",93,"English","magpie","animal",2.995732,6,"correct",675.000208661075
"R1",97,"English","gull","animal",4.418841,4,"incorrect",666.99996937428
"R1",100,"English","cucumber","plant",4.454347,8,"correct",539.0002312801
"R1",101,"English","squirrel","animal",4.70953,8,"correct",607.000126826898
"R1",102,"English","cherry","plant",4.997212,6,"correct",540.999849144075
"R1",106,"English","leek","plant",3.332205,4,"correct",534.000085995263
"R1",109,"English","apple","plant",6.304449,5,"correct",532.999773919653
"R1",111,"English","lettuce","plant",4.812184,7,"correct",459.99977483781
"R1",116,"English","beetroot","plant",3.555348,8,"correct",1678.00018956845
"R1",118,"English","potato","plant",6.461468,6,"correct",630.000113787096
"R1",123,"English","vulture","animal",4.248495,7,"correct",759.999670706985
"R1",125,"English","pear","plant",4.727388,4,"correct",1027.99954149657
"R1",126,"English","donkey","animal",5.541264,6,"correct",600.000206870348
"R1",127,"English","mole","animal",4.60517,4,"correct",811.999723788764
"R1",129,"English","wasp","animal",4.682131,4,"correct",543.999865710384
"R1",130,"English","walnut","plant",4.49981,6,"correct",552.999999158149
"R1",132,"English","grape","plant",5.192957,5,"correct",529.999996530531
"R1",133,"English","tomato","plant",5.545177,6,"correct",492.999914196961
"R1",135,"English","butterfly","animal",5.214936,9,"correct",556.999866360519
"R1",136,"English","radish","plant",3.044522,6,"correct",524.999862139415
"R1",137,"English","melon","plant",4.127134,5,"correct",508.999991575784
"R1",139,"English","dog","animal",7.667626,3,"correct",582.999891357673
"R1",144,"English","broccoli","plant",2.833213,8,"correct",479.00019284021
"R1",145,"English","bat","animal",5.918894,3,"correct",707.99993366485
"R1",146,"English","pig","animal",6.660575,3,"correct",563.999858155113
"R1",148,"English","mouse","animal",5.805135,5,"correct",506.99999817927
"R1",149,"English","eagle","animal",5.117994,5,"correct",466.00017049748
"R1",150,"English","shark","animal",5.880533,5,"correct",506.00016734057
"R1",151,"English","tortoise","animal",4.624973,8,"correct",525.999888099976
"R1",152,"English","snake","animal",6.120297,5,"correct",578.999723485302
"R1",154,"English","stork","animal",3.044522,5,"incorrect",675.000208661075
"R1",155,"English","squid","animal",3.970292,5,"correct",542.999826275901
"R1",157,"English","horse","animal",7.77191,5,"correct",534.000085995263
"R1",158,"English","cat","animal",7.086738,3,"correct",682.000233350799
"R1",159,"English","peanut","plant",4.59512,6,"correct",479.999950127073
"R1",160,"English","olive","plant",5.587249,5,"correct",539.999924638512
"R1",161,"English","strawberry","plant",4.75359,10,"correct",552.999999158149
"R1",162,"English","whale","animal",5.298317,5,"correct",538.000236633012
"R1",165,"English","sheep","animal",6.577861,5,"correct",476.000069385849
"R1",167,"English","lemon","plant",5.631212,5,"correct",545.000111908544
"R1",168,"English","moose","animal",2.70805,5,"correct",442.000052121661
"R1",169,"English","woodpecker","animal",2.890372,10,"incorrect",462.000050320239
"R1",171,"English","kiwi","plant",3.044522,4,"correct",530.999988720531
"R1",174,"English","eggplant","plant",1.791759,8,"correct",546.000013243282
"R1",175,"English","orange","plant",6.378426,6,"correct",659.000306762919
"R1",177,"English","mushroom","plant",5.537334,8,"correct",498.999952219994
"R1",179,"English","elephant","animal",6.063785,8,"correct",492.999914196961
"R1",180,"English","blueberry","plant",2.484907,9,"correct",479.00019284021
"R1",181,"English","frog","animal",5.129899,4,"correct",414.00001083632
"R1",183,"English","dolphin","animal",4.007333,7,"correct",524.999862139415
"R2",24,"English","whale","animal",5.298317,5,"correct",608.000071764574
"R2",25,"English","banana","plant",5.023881,6,NA,NA
"R2",26,"English","woodpecker","animal",2.890372,10,"correct",671.999771168483
"R2",27,"English","shark","animal",5.880533,5,"correct",572.000004930756
"R2",29,"English","hedgehog","animal",3.637586,8,"correct",673.999925245109
"R2",30,"English","snake","animal",6.120297,5,"correct",601.000039344342
"R2",31,"English","strawberry","plant",4.75359,10,"correct",608.000071764574
"R2",32,"English","leek","plant",3.332205,4,"correct",578.000075907371
"R2",34,"English","lemon","plant",5.631212,5,"correct",546.000013243282
"R2",36,"English","camel","animal",6.109248,5,"correct",787.999929191994
"R2",37,"English","dolphin","animal",4.007333,7,"correct",631.000086736501
"R2",41,"English","crocodile","animal",4.615121,9,"correct",749.000012345602
"R2",42,"English","cat","animal",7.086738,3,"correct",573.999772512614
"R2",43,"English","reindeer","animal",4.043051,8,"correct",693.000000561397
"R2",44,"English","donkey","animal",5.541264,6,"correct",538.000236633012
"R2",46,"English","mushroom","plant",5.537334,8,"correct",596.000198429084
"R2",47,"English","elephant","animal",6.063785,8,"correct",604.999722891404
"R2",48,"English","chicken","animal",6.59987,7,"correct",576.0001954392
"R2",51,"English","apricot","plant",3.828641,7,"correct",551.000105156754
"R2",54,"English","bat","animal",5.918894,3,"correct",552.999999158149
"R2",57,"English","beetroot","plant",3.555348,8,"correct",598.00014713754
"R2",59,"English","monkey","animal",5.783825,6,"correct",699.999765469656
"R2",62,"English","swan","animal",4.962845,4,"correct",721.999899719386
"R2",63,"English","orange","plant",6.378426,6,"correct",767.00015235133
"R2",66,"English","blueberry","plant",2.484907,9,"correct",1020.00009559612
"R2",68,"English","pig","animal",6.660575,3,"correct",604.999722891404
"R2",70,"English","melon","plant",4.127134,5,"correct",786.000163150661
"R2",72,"English","horse","animal",7.77191,5,"correct",770.000373567339
"R2",73,"English","kiwi","plant",3.044522,4,"correct",729.000195365715
"R2",74,"English","tomato","plant",5.545177,6,"correct",666.000219420137
"R2",75,"English","carrot","plant",4.976734,6,"correct",690.000277662056
"R2",76,"English","sheep","animal",6.577861,5,"correct",623.000299795489
"R2",77,"English","wasp","animal",4.682131,4,"correct",666.000219420137
"R2",78,"English","mustard","plant",4.442651,7,"correct",570.999880286431
"R2",87,"English","moose","animal",2.70805,5,"correct",639.999887133631
"R2",94,"English","spider","animal",4.844187,6,"correct",710.000021274894
"R2",97,"English","radish","plant",3.044522,6,"correct",611.999827102481
"R2",98,"English","cherry","plant",4.997212,6,"correct",573.999772512614
"R2",102,"English","squid","animal",3.970292,5,"correct",686.999799243275
"R2",106,"English","tortoise","animal",4.624973,8,"correct",723.999715912797
"R2",110,"English","pineapple","plant",3.988984,9,"correct",601.000039344342
"R2",111,"English","bee","animal",5.700444,3,"correct",529.999996530531
"R2",113,"English","peanut","plant",4.59512,6,"correct",723.999715912797
"R2",114,"English","ant","animal",5.347108,3,"correct",592.999763394396
"R2",115,"English","pear","plant",4.727388,4,"correct",607.000126826898
"R2",117,"English","walnut","plant",4.49981,6,"correct",828.999871392851
"R2",118,"English","paprika","plant",2.484907,7,"correct",804.999776678087
"R2",121,"English","potato","plant",6.461468,6,"correct",668.999959774217
"R2",123,"English","lion","animal",6.098074,4,"correct",616.999985250376
"R2",126,"English","fox","animal",5.652489,3,"correct",584.000010028315
"R2",127,"English","goat","animal",6.228511,4,"correct",660.000108886498
"R2",128,"English","clove","plant",3.663562,5,"correct",917.99964141046
"R2",133,"English","bunny","animal",3.332205,5,"correct",644.00017638882
"R2",134,"English","olive","plant",5.587249,5,"correct",512.000191979808
"R2",136,"English","owl","animal",4.859812,3,"correct",588.999891829225
"R2",137,"English","squirrel","animal",4.70953,8,"correct",639.999887133631
"R2",138,"English","gull","animal",4.418841,4,"correct",701.000079188757
"R2",140,"English","gherkin","plant",2.079442,7,"correct",776.999727764385
"R2",141,"English","dog","animal",7.667626,3,"correct",545.000111908544
"R2",142,"English","lettuce","plant",4.812184,7,"correct",995.999743445773
"R2",143,"English","vulture","animal",4.248495,7,"correct",739.000058419281
"R2",145,"English","eagle","animal",5.117994,5,"correct",631.000086736501
"R2",148,"English","cucumber","plant",4.454347,8,"correct",718.999742798614
"R2",150,"English","broccoli","plant",2.833213,8,"correct",594.999758700399
"R2",152,"English","beaver","animal",3.951244,6,"correct",600.000206870348
"R2",153,"English","grape","plant",5.192957,5,"correct",602.999881373519
"R2",158,"English","frog","animal",5.129899,4,"correct",590.000273229202
"R2",160,"English","stork","animal",3.044522,5,"correct",723.999715912797
"R2",164,"English","magpie","animal",2.995732,6,"correct",614.000044117656
"R2",167,"English","butterfly","animal",5.214936,9,"correct",649.000183859072
"R2",168,"English","mole","animal",4.60517,4,"correct",556.999866360519
"R2",172,"English","blackberry","plant",4.060443,10,"correct",759.000168956736
"R2",173,"English","eggplant","plant",1.791759,8,"correct",535.999913666057
"R2",175,"English","asparagus","plant",3.663562,9,"correct",707.000236211162
"R2",176,"English","almond","plant",4.204693,6,"correct",651.000232922263
"R2",179,"English","mouse","animal",5.805135,5,"correct",573.000162322477
"R2",180,"English","apple","plant",6.304449,5,"correct",464.999811401918
"R2",181,"English","avocado","plant",3.433987,7,"correct",649.999764121749
"R2",184,"English","goose","animal",5.267858,5,"correct",562.000084359752
"R3",25,"English","camel","animal",6.109248,5,"correct",897.000123733269
"R3",26,"English","lemon","plant",5.631212,5,"correct",569.999794327737
"R3",29,"English","hedgehog","animal",3.637586,8,"correct",525.999888099976
"R3",30,"English","dog","animal",7.667626,3,"correct",422.999924263431
"R3",33,"English","whale","animal",5.298317,5,"correct",546.000013243282
"R3",37,"English","tortoise","animal",4.624973,8,NA,NA
"R3",43,"English","mole","animal",4.60517,4,"correct",807.000267706195
"R3",44,"English","vulture","animal",4.248495,7,"correct",930.000384883089
"R3",45,"English","almond","plant",4.204693,6,"correct",561.00005300177
"R3",46,"English","mushroom","plant",5.537334,8,"correct",540.999849144075
"R3",47,"English","lion","animal",6.098074,4,"correct",569.999794327737
"R3",48,"English","reindeer","animal",4.043051,8,"correct",561.00005300177
"R3",49,"English","bunny","animal",3.332205,5,"correct",457.999915675711
"R3",51,"English","squid","animal",3.970292,5,"correct",648.000196763756
"R3",52,"English","mustard","plant",4.442651,7,"correct",762.000338566851
"R3",53,"English","eagle","animal",5.117994,5,"correct",486.999940058783
"R3",54,"English","spider","animal",4.844187,6,NA,NA
"R3",55,"English","peanut","plant",4.59512,6,"correct",551.999974455044
"R3",56,"English","goat","animal",6.228511,4,"correct",498.999952219994
"R3",60,"English","olive","plant",5.587249,5,"correct",729.000195365715
"R3",62,"English","butterfly","animal",5.214936,9,"correct",802.000314491117
"R3",64,"English","blueberry","plant",2.484907,9,"correct",963.999715995476
"R3",66,"English","clove","plant",3.663562,5,"correct",746.000298248054
"R3",69,"English","blackberry","plant",4.060443,10,"correct",721.999899719386
"R3",70,"English","radish","plant",3.044522,6,"correct",688.000111501868
"R3",74,"English","donkey","animal",5.541264,6,"correct",660.000108886498
"R3",79,"English","lettuce","plant",4.812184,7,"correct",601.999731924149
"R3",80,"English","avocado","plant",3.433987,7,"correct",598.00014713754
"R3",81,"English","sheep","animal",6.577861,5,"correct",646.999809457945
"R3",82,"English","tomato","plant",5.545177,6,"correct",469.000108598708
"R3",83,"English","asparagus","plant",3.663562,9,NA,NA
"R3",84,"English","leek","plant",3.332205,4,"correct",501.999939914756
"R3",86,"English","owl","animal",4.859812,3,"correct",646.999809457945
"R3",87,"English","apricot","plant",3.828641,7,"correct",570.999880286431
"R3",90,"English","frog","animal",5.129899,4,"correct",652.000285623885
"R3",93,"English","bee","animal",5.700444,3,"correct",570.999880286431
"R3",97,"English","crocodile","animal",4.615121,9,"correct",977.00033995426
"R3",99,"English","carrot","plant",4.976734,6,"correct",652.999915582496
"R3",100,"English","cherry","plant",4.997212,6,"correct",563.999858155113
"R3",101,"English","mouse","animal",5.805135,5,"correct",494.000238509224
"R3",106,"English","cat","animal",7.086738,3,"correct",587.000105760917
"R3",107,"English","beaver","animal",3.951244,6,"correct",590.999989712996
"R3",108,"English","bat","animal",5.918894,3,"correct",480.999870079147
"R3",111,"English","melon","plant",4.127134,5,"correct",695.000107332478
"R3",113,"English","kiwi","plant",3.044522,4,"correct",483.000167285837
"R3",115,"English","moose","animal",2.70805,5,"correct",712.99970024467
"R3",117,"English","apple","plant",6.304449,5,"correct",562.000084359752
"R3",119,"English","orange","plant",6.378426,6,"correct",427.999916290999
"R3",120,"English","monkey","animal",5.783825,6,"correct",469.000108598708
"R3",121,"English","stork","animal",3.044522,5,"incorrect",576.0001954392
"R3",124,"English","wasp","animal",4.682131,4,"correct",723.999715912797
"R3",128,"English","goose","animal",5.267858,5,"correct",715.999880456188
"R3",133,"English","pear","plant",4.727388,4,"correct",530.999988720531
"R3",134,"English","elephant","animal",6.063785,8,"correct",587.000105760917
"R3",136,"English","potato","plant",6.461468,6,"correct",722.999839379231
"R3",137,"English","gherkin","plant",2.079442,7,"correct",663.999900747655
"R3",138,"English","snake","animal",6.120297,5,"correct",639.999887133631
"R3",139,"English","pineapple","plant",3.988984,9,NA,NA
"R3",143,"English","swan","animal",4.962845,4,"correct",644.999795666759
"R3",145,"English","chicken","animal",6.59987,7,"correct",524.999862139415
"R3",146,"English","pig","animal",6.660575,3,"correct",475.000093083554
"R3",148,"English","horse","animal",7.77191,5,"correct",485.000052895323
"R3",149,"English","gull","animal",4.418841,4,"correct",606.000008441996
"R3",150,"English","banana","plant",5.023881,6,"correct",480.999870079147
"R3",152,"English","eggplant","plant",1.791759,8,"correct",506.00016734057
"R3",153,"English","woodpecker","animal",2.890372,10,"correct",531.999739670309
"R3",155,"English","broccoli","plant",2.833213,8,NA,NA
"R3",157,"English","shark","animal",5.880533,5,"correct",464.000207767064
"R3",162,"English","grape","plant",5.192957,5,"correct",490.999937252894
"R3",168,"English","cucumber","plant",4.454347,8,"correct",780.999882975214
"R3",169,"English","paprika","plant",2.484907,7,"correct",631.000086736501
"R3",171,"English","magpie","animal",2.995732,6,"correct",598.00014713754
"R3",175,"English","beetroot","plant",3.555348,8,"correct",594.999758700399
"R3",179,"English","dolphin","animal",4.007333,7,"incorrect",476.000069385849
"R3",180,"English","walnut","plant",4.49981,6,"correct",652.999915582496
"R3",181,"English","strawberry","plant",4.75359,10,"correct",520.000097980763
"R3",182,"English","fox","animal",5.652489,3,"correct",527.000237918756
"R3",184,"English","squirrel","animal",4.70953,8,"correct",568.999752982172
"R3",185,"English","ant","animal",5.347108,3,"correct",476.999765846319
"S",24,"English","bee","animal",5.700444,3,"correct",453.999910089237
"S",25,"English","apple","plant",6.304449,5,"correct",473.999847516558
"S",26,"English","moose","animal",2.70805,5,"correct",520.999978246496
"S",29,"English","beaver","animal",3.951244,6,"correct",507.999772630182
"S",31,"English","eggplant","plant",1.791759,8,"correct",510.00013988365
"S",32,"English","tortoise","animal",4.624973,8,"correct",536.999949248742
"S",34,"English","blackberry","plant",4.060443,10,"correct",511.00020940595
"S",36,"English","strawberry","plant",4.75359,10,"correct",464.999811401918
"S",43,"English","spider","animal",4.844187,6,"correct",504.99978321599
"S",44,"English","tomato","plant",5.545177,6,"correct",561.00005300177
"S",45,"English","mouse","animal",5.805135,5,"correct",783.000238039238
"S",48,"English","mole","animal",4.60517,4,"correct",576.999846224847
"S",53,"English","squirrel","animal",4.70953,8,"correct",739.000058419281
"S",56,"English","sheep","animal",6.577861,5,"correct",613.000039271103
"S",57,"English","magpie","animal",2.995732,6,"correct",1013.99981327077
"S",58,"English","vulture","animal",4.248495,7,"correct",1067.99997915249
"S",59,"English","carrot","plant",4.976734,6,"correct",487.999801943704
"S",60,"English","leek","plant",3.332205,4,"correct",525.999888099976
"S",61,"English","blueberry","plant",2.484907,9,"correct",634.000028886799
"S",62,"English","broccoli","plant",2.833213,8,"correct",535.000135410654
"S",63,"English","asparagus","plant",3.663562,9,"correct",961.999566459688
"S",64,"English","monkey","animal",5.783825,6,"correct",539.999924638512
"S",66,"English","squid","animal",3.970292,5,"correct",1018.99996614604
"S",68,"English","eagle","animal",5.117994,5,"correct",670.999908092008
"S",71,"English","clove","plant",3.663562,5,"correct",695.000107332478
"S",74,"English","apricot","plant",3.828641,7,"correct",592.000216148708
"S",77,"English","crocodile","animal",4.615121,9,"correct",1264.00053757072
"S",78,"English","paprika","plant",2.484907,7,"correct",764.000161076796
"S",81,"English","peanut","plant",4.59512,6,"correct",558.000020991229
"S",86,"English","horse","animal",7.77191,5,"correct",623.999770137519
"S",87,"English","banana","plant",5.023881,6,NA,NA
"S",88,"English","pineapple","plant",3.988984,9,"correct",646.999809457945
"S",92,"English","kiwi","plant",3.044522,4,"correct",570.999880286431
"S",94,"English","butterfly","animal",5.214936,9,"correct",751.000261525181
"S",95,"English","orange","plant",6.378426,6,"correct",512.000191979808
"S",96,"English","olive","plant",5.587249,5,"correct",524.0001654158
"S",97,"English","cucumber","plant",4.454347,8,"correct",549.999846975437
"S",99,"English","bat","animal",5.918894,3,"correct",552.999999158149
"S",101,"English","dog","animal",7.667626,3,"correct",601.000039344342
"S",108,"English","mushroom","plant",5.537334,8,"correct",785.00022154084
"S",109,"English","mustard","plant",4.442651,7,"correct",616.000022463352
"S",117,"English","shark","animal",5.880533,5,"correct",637.99981922605
"S",118,"English","dolphin","animal",4.007333,7,"correct",688.999813271615
"S",119,"English","fox","animal",5.652489,3,"correct",552.999999158149
"S",123,"English","goose","animal",5.267858,5,"correct",548.999757611321
"S",126,"English","ant","animal",5.347108,3,NA,NA
"S",127,"English","stork","animal",3.044522,5,"correct",594.999758700399
"S",130,"English","wasp","animal",4.682131,4,"correct",570.999880286431
"S",133,"English","cherry","plant",4.997212,6,"correct",513.000079427401
"S",135,"English","lettuce","plant",4.812184,7,"correct",506.99999817927
"S",136,"English","snake","animal",6.120297,5,"correct",478.000127869101
"S",137,"English","radish","plant",3.044522,6,NA,NA
"S",139,"English","camel","animal",6.109248,5,"correct",464.999811401918
"S",141,"English","avocado","plant",3.433987,7,"correct",782.000202893593
"S",143,"English","whale","animal",5.298317,5,"correct",587.000105760917
"S",144,"English","lion","animal",6.098074,4,"correct",450.000187756075
"S",152,"English","owl","animal",4.859812,3,"correct",578.000075907371
"S",153,"English","pig","animal",6.660575,3,"correct",594.999758700399
"S",155,"English","woodpecker","animal",2.890372,10,"correct",488.999760646846
"S",158,"English","reindeer","animal",4.043051,8,"incorrect",492.000139485804
"S",159,"English","lemon","plant",5.631212,5,"correct",588.999891829225
"S",160,"English","donkey","animal",5.541264,6,"correct",534.000085995263
"S",162,"English","swan","animal",4.962845,4,"correct",467.999861510562
"S",163,"English","walnut","plant",4.49981,6,NA,NA
"S",164,"English","goat","animal",6.228511,4,"correct",576.0001954392
"S",165,"English","almond","plant",4.204693,6,"correct",539.999924638512
"S",166,"English","pear","plant",4.727388,4,"correct",576.0001954392
"S",167,"English","frog","animal",5.129899,4,"correct",441.000054927944
"S",169,"English","beetroot","plant",3.555348,8,"correct",486.999940058783
"S",170,"English","elephant","animal",6.063785,8,"correct",462.000050320239
"S",172,"English","chicken","animal",6.59987,7,"correct",414.00001083632
"S",174,"English","bunny","animal",3.332205,5,"correct",721.999899719386
"S",176,"English","potato","plant",6.461468,6,"correct",454.999809377357
"S",177,"English","gull","animal",4.418841,4,"correct",601.999731924149
"S",179,"English","grape","plant",5.192957,5,"correct",501.999939914756
"S",181,"English","hedgehog","animal",3.637586,8,"correct",619.999703615806
"S",182,"English","cat","animal",7.086738,3,"correct",554.999936870732
"S",183,"English","gherkin","plant",2.079442,7,"correct",743.99997408418
"S",184,"English","melon","plant",4.127134,5,"correct",596.999932304621
"T1",24,"English","chicken","animal",6.59987,7,"correct",495.000117528512
"T1",25,"English","cat","animal",7.086738,3,"correct",513.000079427401
"T1",26,"English","avocado","plant",3.433987,7,"correct",587.000105760917
"T1",28,"English","tomato","plant",5.545177,6,"correct",824.99968127395
"T1",30,"English","broccoli","plant",2.833213,8,"correct",576.999846224847
"T1",33,"English","eggplant","plant",1.791759,8,"correct",545.000111908544
"T1",34,"English","almond","plant",4.204693,6,"correct",558.999735506362
"T1",35,"English","eagle","animal",5.117994,5,"correct",610.000026127913
"T1",37,"English","strawberry","plant",4.75359,10,"correct",567.999762166436
"T1",38,"English","kiwi","plant",3.044522,4,"correct",481.999945027614
"T1",39,"English","mouse","animal",5.805135,5,"correct",541.999999219712
"T1",43,"English","stork","animal",3.044522,5,"incorrect",853.000385989685
"T1",45,"English","gherkin","plant",2.079442,7,NA,NA
"T1",46,"English","goose","animal",5.267858,5,"correct",531.999739670309
"T1",48,"English","blackberry","plant",4.060443,10,"correct",632.999732782793
"T1",51,"English","woodpecker","animal",2.890372,10,"correct",730.0003400761
"T1",52,"English","lion","animal",6.098074,4,"correct",486.999940058783
"T1",55,"English","spider","animal",4.844187,6,"correct",600.000206870348
"T1",56,"English","hedgehog","animal",3.637586,8,"correct",670.00019270207
"T1",57,"English","olive","plant",5.587249,5,"correct",566.999827786391
"T1",59,"English","dolphin","animal",4.007333,7,"correct",590.999989712996
"T1",60,"English","butterfly","animal",5.214936,9,"correct",634.000028886799
"T1",61,"English","monkey","animal",5.783825,6,NA,NA
"T1",62,"English","goat","animal",6.228511,4,"correct",547.99984275251
"T1",66,"English","clove","plant",3.663562,5,"correct",849.999702938344
"T1",67,"English","mustard","plant",4.442651,7,"correct",634.000028886799
"T1",68,"English","magpie","animal",2.995732,6,"correct",532.999773919653
"T1",69,"English","blueberry","plant",2.484907,9,"correct",451.999918715839
"T1",70,"English","whale","animal",5.298317,5,NA,NA
"T1",72,"English","reindeer","animal",4.043051,8,"correct",1242.99988625219
"T1",73,"English","lemon","plant",5.631212,5,"correct",524.0001654158
"T1",77,"English","melon","plant",4.127134,5,"correct",616.999985250376
"T1",78,"English","apricot","plant",3.828641,7,"correct",656.999987855611
"T1",79,"English","orange","plant",6.378426,6,"correct",646.999809457945
"T1",82,"English","owl","animal",4.859812,3,"correct",598.00014713754
"T1",84,"English","bee","animal",5.700444,3,"correct",813.999702073986
"T1",86,"English","bunny","animal",3.332205,5,"correct",606.000008441996
"T1",87,"English","horse","animal",7.77191,5,"correct",520.000097980763
"T1",88,"English","leek","plant",3.332205,4,"correct",707.99993366485
"T1",89,"English","potato","plant",6.461468,6,"correct",404.999972821852
"T1",90,"English","carrot","plant",4.976734,6,"correct",490.999937252894
"T1",92,"English","frog","animal",5.129899,4,"correct",590.999989712996
"T1",93,"English","walnut","plant",4.49981,6,"correct",565.999955737
"T1",96,"English","squid","animal",3.970292,5,"correct",539.999924638512
"T1",103,"English","apple","plant",6.304449,5,"correct",561.00005300177
"T1",105,"English","pineapple","plant",3.988984,9,"correct",578.999723485302
"T1",107,"English","dog","animal",7.667626,3,"correct",498.999952219994
"T1",108,"English","fox","animal",5.652489,3,"correct",584.000010028315
"T1",109,"English","tortoise","animal",4.624973,8,"correct",616.999985250376
"T1",118,"English","gull","animal",4.418841,4,"correct",733.000218517117
"T1",119,"English","sheep","animal",6.577861,5,"correct",488.999760646846
"T1",122,"English","wasp","animal",4.682131,4,"correct",632.999732782793
"T1",125,"English","donkey","animal",5.541264,6,"correct",558.000020991229
"T1",129,"English","asparagus","plant",3.663562,9,"correct",616.999985250376
"T1",131,"English","beetroot","plant",3.555348,8,"correct",554.000173542032
"T1",132,"English","bat","animal",5.918894,3,"incorrect",438.999818660037
"T1",134,"English","ant","animal",5.347108,3,"correct",558.999735506362
"T1",137,"English","vulture","animal",4.248495,7,"correct",723.999715912797
"T1",139,"English","radish","plant",3.044522,6,"correct",563.999858155113
"T1",141,"English","squirrel","animal",4.70953,8,"correct",663.000006506774
"T1",143,"English","mole","animal",4.60517,4,"correct",594.999758700399
"T1",144,"English","banana","plant",5.023881,6,"correct",527.999850203115
"T1",145,"English","moose","animal",2.70805,5,"correct",485.000052895323
"T1",153,"English","peanut","plant",4.59512,6,"correct",486.999940058783
"T1",155,"English","shark","animal",5.880533,5,"correct",492.999914196961
"T1",156,"English","camel","animal",6.109248,5,"correct",549.999846975437
"T1",157,"English","swan","animal",4.962845,4,"correct",594.999758700399
"T1",159,"English","paprika","plant",2.484907,7,"correct",676.999815238415
"T1",160,"English","crocodile","animal",4.615121,9,"correct",607.000126826898
"T1",165,"English","snake","animal",6.120297,5,"incorrect",434.000202200471
"T1",166,"English","pear","plant",4.727388,4,"correct",554.999936870732
"T1",168,"English","cucumber","plant",4.454347,8,"correct",637.00021940057
"T1",170,"English","elephant","animal",6.063785,8,"correct",563.000209357393
"T1",171,"English","beaver","animal",3.951244,6,"correct",483.000167285837
"T1",177,"English","lettuce","plant",4.812184,7,"correct",499.999950788907
"T1",178,"English","grape","plant",5.192957,5,"correct",538.000236633012
"T1",179,"English","cherry","plant",4.997212,6,"correct",447.000181207772
"T1",182,"English","pig","animal",6.660575,3,"correct",540.999849144075
"T1",183,"English","mushroom","plant",5.537334,8,"correct",479.999950127073
"T2",26,"Other","reindeer","animal",4.043051,8,"correct",1350.99954341585
"T2",27,"Other","blueberry","plant",2.484907,9,"correct",1337.00056541482
"T2",29,"Other","horse","animal",7.77191,5,"correct",940.999868650166
"T2",32,"Other","radish","plant",3.044522,6,"correct",925.000242801038
"T2",38,"Other","beaver","animal",3.951244,6,"correct",1105.00042658328
"T2",39,"Other","banana","plant",5.023881,6,"correct",917.99964141046
"T2",40,"Other","moose","animal",2.70805,5,"correct",866.000079184935
"T2",41,"Other","squirrel","animal",4.70953,8,"correct",1066.00042136239
"T2",44,"Other","gherkin","plant",2.079442,7,"incorrect",1973.00097461762
"T2",46,"Other","butterfly","animal",5.214936,9,"correct",916.999566940924
"T2",48,"Other","whale","animal",5.298317,5,"correct",1139.00004163366
"T2",50,"Other","blackberry","plant",4.060443,10,"correct",930.000384883089
"T2",52,"Other","melon","plant",4.127134,5,"correct",757.999707683139
"T2",53,"Other","spider","animal",4.844187,6,"correct",982.999881895343
"T2",54,"Other","dog","animal",7.667626,3,"correct",737.000079456463
"T2",55,"Other","pear","plant",4.727388,4,"correct",833.000298075073
"T2",56,"Other","tortoise","animal",4.624973,8,"correct",1115.99984047757
"T2",58,"Other","kiwi","plant",3.044522,4,"correct",715.999880456188
"T2",60,"Other","peanut","plant",4.59512,6,"incorrect",1064.00035122477
"T2",62,"Other","beetroot","plant",3.555348,8,"correct",1132.99970425531
"T2",63,"Other","squid","animal",3.970292,5,"correct",941.999741349101
"T2",64,"Other","magpie","animal",2.995732,6,"incorrect",903.000403264553
"T2",66,"Other","mole","animal",4.60517,4,"correct",1059.99980166754
"T2",69,"Other","walnut","plant",4.49981,6,NA,NA
"T2",72,"Other","olive","plant",5.587249,5,"correct",837.999915796018
"T2",73,"Other","camel","animal",6.109248,5,"correct",1088.99986612601
"T2",74,"Other","monkey","animal",5.783825,6,"correct",869.999815865712
"T2",77,"Other","cat","animal",7.086738,3,"correct",649.999764121749
"T2",80,"Other","pineapple","plant",3.988984,9,"correct",1032.99951539953
"T2",81,"Other","lemon","plant",5.631212,5,"correct",585.000089369371
"T2",82,"Other","pig","animal",6.660575,3,"correct",683.000095913157
"T2",83,"Other","wasp","animal",4.682131,4,"correct",1140.99960080744
"T2",85,"Other","mustard","plant",4.442651,7,"correct",942.999733476687
"T2",86,"Other","strawberry","plant",4.75359,10,"correct",977.00033995426
"T2",89,"Other","shark","animal",5.880533,5,"correct",911.000093596182
"T2",92,"Other","dolphin","animal",4.007333,7,"correct",1112.99960903039
"T2",93,"Other","hedgehog","animal",3.637586,8,"incorrect",966.999520896783
"T2",95,"Other","vulture","animal",4.248495,7,"incorrect",1372.00026303187
"T2",96,"Other","goose","animal",5.267858,5,"correct",979.000349962693
"T2",100,"Other","swan","animal",4.962845,4,"correct",869.999815865712
"T2",101,"Other","lion","animal",6.098074,4,"correct",712.000063074676
"T2",102,"Other","eggplant","plant",1.791759,8,"correct",993.0003336032
"T2",103,"Other","paprika","plant",2.484907,7,"correct",1233.00061259852
"T2",108,"Other","woodpecker","animal",2.890372,10,"correct",1159.00018156924
"T2",109,"Other","tomato","plant",5.545177,6,NA,NA
"T2",110,"Other","gull","animal",4.418841,4,"correct",727.999964912814
"T2",112,"Other","broccoli","plant",2.833213,8,"correct",776.000372337912
"T2",115,"Other","clove","plant",3.663562,5,"correct",710.999694409961
"T2",117,"Other","bat","animal",5.918894,3,"correct",661.000105858044
"T2",118,"Other","apple","plant",6.304449,5,"correct",672.999778149135
"T2",119,"Other","apricot","plant",3.828641,7,"correct",881.000329550287
"T2",121,"Other","crocodile","animal",4.615121,9,"incorrect",907.999656230091
"T2",122,"Other","almond","plant",4.204693,6,"incorrect",969.999930647497
"T2",124,"Other","cucumber","plant",4.454347,8,"correct",910.000364445158
"T2",125,"Other","lettuce","plant",4.812184,7,"correct",827.999872169015
"T2",131,"Other","orange","plant",6.378426,6,"correct",857.999914639332
"T2",133,"Other","grape","plant",5.192957,5,"correct",894.000200994901
"T2",135,"Other","eagle","animal",5.117994,5,"correct",1157.00031563696
"T2",138,"Other","frog","animal",5.129899,4,"correct",721.999899719386
"T2",142,"Other","goat","animal",6.228511,4,"correct",908.999914392675
"T2",144,"Other","potato","plant",6.461468,6,"correct",964.999902207884
"T2",145,"Other","bee","animal",5.700444,3,"correct",755.999715608326
"T2",146,"Other","chicken","animal",6.59987,7,"correct",686.999799243275
"T2",149,"Other","leek","plant",3.332205,4,"correct",686.00025538009
"T2",151,"Other","carrot","plant",4.976734,6,"correct",738.000129444863
"T2",152,"Other","sheep","animal",6.577861,5,"correct",712.99970024467
"T2",157,"Other","owl","animal",4.859812,3,"correct",722.999839379231
"T2",158,"Other","snake","animal",6.120297,5,"correct",869.999815865712
"T2",159,"Other","avocado","plant",3.433987,7,"correct",900.999767894918
"T2",162,"Other","bunny","animal",3.332205,5,"correct",1136.99943860578
"T2",164,"Other","mushroom","plant",5.537334,8,"correct",733.000218517117
"T2",165,"Other","ant","animal",5.347108,3,"correct",675.000208661075
"T2",166,"Other","asparagus","plant",3.663562,9,"correct",831.999633236835
"T2",173,"Other","fox","animal",5.652489,3,"correct",694.000027408278
"T2",174,"Other","elephant","animal",6.063785,8,"correct",1371.00043932014
"T2",175,"Other","mouse","animal",5.805135,5,"correct",666.99996937428
"T2",178,"Other","cherry","plant",4.997212,6,"correct",1157.00031563696
"T2",179,"Other","donkey","animal",5.541264,6,"correct",791.000025495786
"T2",183,"Other","stork","animal",3.044522,5,"correct",978.000322706002
"V",23,"Other","stork","animal",3.044522,5,"incorrect",1013.99981327077
"V",25,"Other","eagle","animal",5.117994,5,"correct",1051.99958625095
"V",28,"Other","dog","animal",7.667626,3,"correct",617.999717291212
"V",29,"Other","clove","plant",3.663562,5,"correct",859.999665247169
"V",31,"Other","swan","animal",4.962845,4,"correct",938.999550023549
"V",32,"Other","ant","animal",5.347108,3,"correct",585.000089369371
"V",33,"Other","melon","plant",4.127134,5,"correct",661.000105858044
"V",35,"Other","wasp","animal",4.682131,4,"correct",738.000129444863
"V",36,"Other","shark","animal",5.880533,5,"correct",565.999955737
"V",39,"Other","snake","animal",6.120297,5,"correct",631.000086736501
"V",42,"Other","donkey","animal",5.541264,6,"correct",675.000208661075
"V",45,"Other","gull","animal",4.418841,4,"correct",659.000306762919
"V",46,"Other","radish","plant",3.044522,6,"correct",857.000069761706
"V",48,"Other","cucumber","plant",4.454347,8,"correct",837.999915796018
"V",52,"Other","pear","plant",4.727388,4,"correct",712.000063074676
"V",55,"Other","mouse","animal",5.805135,5,"correct",606.000008441996
"V",57,"Other","leek","plant",3.332205,4,"correct",737.000079456463
"V",60,"Other","goat","animal",6.228511,4,"correct",600.000206870348
"V",61,"Other","gherkin","plant",2.079442,7,"incorrect",881.000329550287
"V",63,"Other","pineapple","plant",3.988984,9,"correct",871.999630351448
"V",66,"Other","grape","plant",5.192957,5,"correct",634.000028886799
"V",67,"Other","tortoise","animal",4.624973,8,"correct",1159.00018156924
"V",69,"Other","dolphin","animal",4.007333,7,"correct",625.999767691382
"V",70,"Other","sheep","animal",6.577861,5,"correct",588.999891829225
"V",72,"Other","mustard","plant",4.442651,7,"correct",854.999599059164
"V",73,"Other","whale","animal",5.298317,5,"correct",660.000108886498
"V",74,"Other","eggplant","plant",1.791759,8,"correct",739.000058419281
"V",77,"Other","squirrel","animal",4.70953,8,"correct",891.999881738639
"V",78,"Other","pig","animal",6.660575,3,"correct",570.999880286431
"V",79,"Other","walnut","plant",4.49981,6,"correct",692.000030712573
"V",81,"Other","bee","animal",5.700444,3,"correct",556.999866360519
"V",83,"Other","peanut","plant",4.59512,6,"correct",627.000288023225
"V",84,"Other","orange","plant",6.378426,6,"correct",727.999964912814
"V",87,"Other","avocado","plant",3.433987,7,"correct",666.99996937428
"V",89,"Other","almond","plant",4.204693,6,"correct",682.000233350799
"V",93,"Other","squid","animal",3.970292,5,"correct",814.999907708702
"V",97,"Other","lion","animal",6.098074,4,"correct",628.999838535443
"V",99,"Other","butterfly","animal",5.214936,9,"correct",683.000095913157
"V",101,"Other","spider","animal",4.844187,6,"correct",573.999772512614
"V",106,"Other","elephant","animal",6.063785,8,NA,NA
"V",107,"Other","crocodile","animal",4.615121,9,"correct",836.999941000311
"V",108,"Other","cat","animal",7.086738,3,"correct",611.999827102481
"V",110,"Other","mole","animal",4.60517,4,"correct",703.999749264783
"V",112,"Other","cherry","plant",4.997212,6,"correct",721.999899719386
"V",117,"Other","lettuce","plant",4.812184,7,"correct",827.000252215446
"V",119,"Other","camel","animal",6.109248,5,"correct",940.000117251801
"V",121,"Other","bunny","animal",3.332205,5,"correct",755.00018931701
"V",122,"Other","frog","animal",5.129899,4,"correct",661.000105858044
"V",123,"Other","beaver","animal",3.951244,6,"correct",837.999915796018
"V",130,"Other","horse","animal",7.77191,5,"correct",976.000403660905
"V",131,"Other","banana","plant",5.023881,6,"correct",587.000105760917
"V",133,"Other","olive","plant",5.587249,5,"correct",725.999989237198
"V",135,"Other","lemon","plant",5.631212,5,"correct",617.999717291212
"V",137,"Other","kiwi","plant",3.044522,4,"correct",670.999908092008
"V",138,"Other","owl","animal",4.859812,3,"correct",895.00025214404
"V",139,"Other","magpie","animal",2.995732,6,"correct",894.000200994901
"V",140,"Other","blueberry","plant",2.484907,9,"correct",620.999949119312
"V",141,"Other","reindeer","animal",4.043051,8,"correct",913.0001090168
"V",142,"Other","mushroom","plant",5.537334,8,"correct",715.000326973859
"V",143,"Other","goose","animal",5.267858,5,"correct",574.999976541524
"V",144,"Other","moose","animal",2.70805,5,"correct",588.999891829225
"V",145,"Other","paprika","plant",2.484907,7,"correct",684.000056346178
"V",146,"Other","strawberry","plant",4.75359,10,"correct",707.000236211162
"V",147,"Other","vulture","animal",4.248495,7,"correct",1026.99978440339
"V",148,"Other","beetroot","plant",3.555348,8,"correct",670.00019270207
"V",150,"Other","apple","plant",6.304449,5,"correct",666.99996937428
"V",154,"Other","woodpecker","animal",2.890372,10,"correct",888.000228222983
"V",155,"Other","chicken","animal",6.59987,7,"correct",639.999887133631
"V",160,"Other","hedgehog","animal",3.637586,8,"correct",918.999887555131
"V",162,"Other","asparagus","plant",3.663562,9,"correct",845.000314883247
"V",164,"Other","blackberry","plant",4.060443,10,"correct",795.999852067885
"V",165,"Other","carrot","plant",4.976734,6,"correct",617.999717291212
"V",166,"Other","fox","animal",5.652489,3,"correct",596.000198429084
"V",169,"Other","monkey","animal",5.783825,6,"correct",649.000183859072
"V",171,"Other","tomato","plant",5.545177,6,"correct",616.999985250376
"V",177,"Other","bat","animal",5.918894,3,NA,NA
"V",178,"Other","potato","plant",6.461468,6,"correct",749.000012345602
"V",179,"Other","apricot","plant",3.828641,7,"correct",636.000277715743
"V",181,"Other","broccoli","plant",2.833213,8,"correct",786.999804495528
"W1",33,"English","grape","plant",5.192957,5,NA,NA
"W1",34,"English","monkey","animal",5.783825,6,"correct",561.00005300177
"W1",36,"English","pig","animal",6.660575,3,"correct",590.999989712996
"W1",37,"English","pineapple","plant",3.988984,9,NA,NA
"W1",38,"English","avocado","plant",3.433987,7,"correct",532.999773919653
"W1",41,"English","bat","animal",5.918894,3,"correct",501.999939914756
"W1",43,"English","broccoli","plant",2.833213,8,"correct",512.000191979808
"W1",48,"English","hedgehog","animal",3.637586,8,"correct",714.000026889537
"W1",50,"English","swan","animal",4.962845,4,"correct",570.999880286431
"W1",51,"English","chicken","animal",6.59987,7,"correct",496.999987029976
"W1",52,"English","walnut","plant",4.49981,6,"correct",515.000051158178
"W1",53,"English","mouse","animal",5.805135,5,"correct",481.999945027614
"W1",54,"English","strawberry","plant",4.75359,10,"correct",494.000238509224
"W1",57,"English","radish","plant",3.044522,6,"correct",590.000273229202
"W1",58,"English","elephant","animal",6.063785,8,"correct",466.99987966864
"W1",59,"English","donkey","animal",5.541264,6,"correct",462.999974958074
"W1",65,"English","tortoise","animal",4.624973,8,NA,NA
"W1",68,"English","leek","plant",3.332205,4,"correct",590.999989712996
"W1",69,"English","beetroot","plant",3.555348,8,"correct",683.000095913157
"W1",71,"English","woodpecker","animal",2.890372,10,"correct",581.999739420361
"W1",74,"English","almond","plant",4.204693,6,"correct",568.999752982172
"W1",76,"English","apple","plant",6.304449,5,"correct",539.0002312801
"W1",77,"English","ant","animal",5.347108,3,"correct",561.00005300177
"W1",78,"English","moose","animal",2.70805,5,"correct",470.000143489093
"W1",79,"English","kiwi","plant",3.044522,4,"correct",483.000167285837
"W1",82,"English","cucumber","plant",4.454347,8,"correct",565.999955737
"W1",83,"English","blackberry","plant",4.060443,10,"correct",466.99987966864
"W1",84,"English","beaver","animal",3.951244,6,"correct",520.000097980763
"W1",85,"English","mushroom","plant",5.537334,8,"correct",484.000045149152
"W1",86,"English","eagle","animal",5.117994,5,"correct",458.99990358222
"W1",88,"English","lettuce","plant",4.812184,7,"correct",504.99978321599
"W1",89,"English","lion","animal",6.098074,4,"correct",466.00017049748
"W1",92,"English","olive","plant",5.587249,5,"correct",450.000187756075
"W1",94,"English","bunny","animal",3.332205,5,"correct",486.000182784394
"W1",97,"English","cat","animal",7.086738,3,"correct",494.000238509224
"W1",98,"English","gherkin","plant",2.079442,7,"incorrect",632.999732782793
"W1",99,"English","wasp","animal",4.682131,4,"correct",494.000238509224
"W1",101,"English","owl","animal",4.859812,3,"correct",532.999773919653
"W1",102,"English","paprika","plant",2.484907,7,"incorrect",556.999866360519
"W1",103,"English","whale","animal",5.298317,5,"correct",513.999863556063
"W1",105,"English","goat","animal",6.228511,4,"correct",429.000034779882
"W1",106,"English","peanut","plant",4.59512,6,"correct",456.000086861448
"W1",108,"English","banana","plant",5.023881,6,"correct",483.000167285837
"W1",109,"English","frog","animal",5.129899,4,"correct",464.000207767064
"W1",112,"English","reindeer","animal",4.043051,8,"correct",643.000177315235
"W1",113,"English","sheep","animal",6.577861,5,"correct",421.999867476824
